topic,category,participant_id,descriptions,difficulty_rating,image,is_data_visualization,languages,minivlat_answers,minivlat_time,reaction_times,self_understanding,timeSpent,topic,trial_number,desc_type,minivlat_score,num_words,caption,alttext,char_count,num_words_caption,num_words_alttext,desc_caption_jaccard,desc_alttext_jaccard,desc_caption_sbert,desc_alttext_sbert,jaccard_alttext_caption,sbert_alttext_caption,CLIPScore,colour_terms,numbers_raw_count,hedge_terms,trend_terms
Nutaarmiut,Nutaarmiut / Population,0ab95ea049d5cc368558cdf1,"a bar graph is shown by year, with variable increases and decreases but a downward trend between 2004-2010",4,prolific/train-0-42178.png,TRUE,english,"{'question1': 'False', 'question10': '$0.71', 'question11': 'Skip', 'question12': 'False', 'question2': 'Great Britain', 'question3': '30-40 km', 'question4': 'True', 'question5': '17.6%', 'question6': 'Shanghai', 'question7': '$4.5', 'question8': '$50.54', 'question9': '40.51 Mbps'}",4.242533333,80822,5,9.12995,Nutaarmiut,0,first,10,19,Nutaarmiut population growth dynamics in the last two decades. Source: Statistics Greenland[2],Nutaarmiut population dynamics,106,17,3,0.5588235294,0.5,0.1400016546,0.07113604248,0,0.7322562337,0.792,0,2,0,3
Ikerasaarsuk,Ikerasaarsuk / Population,0ab95ea049d5cc368558cdf1,"a bar graph is shown with yearly pop trends, beginning with very low trends and rising upwards until 2000s, where data is variable until lowering between 2007-2010",5,prolific/train-0-370954.png,TRUE,english,"{'question1': 'False', 'question10': '$0.71', 'question11': 'Skip', 'question12': 'False', 'question2': 'Great Britain', 'question3': '30-40 km', 'question4': 'True', 'question5': '17.6%', 'question6': 'Shanghai', 'question7': '$4.5', 'question8': '$50.54', 'question9': '40.51 Mbps'}",4.242533333,97193,5,9.12995,Ikerasaarsuk,1,first,10,29,Ikerasaarsuk population growth dynamics in the last two decades. Source: Statistics Greenland[4],Ikerasaarsuk population dynamics,163,17,3,0.4722222222,0.4827586207,0.168386817,0.147617504,0,0.7536988854,0.794,0,2,0,2
Nanortalik,Nanortalik / Population,0ab95ea049d5cc368558cdf1,"a bar graph is shown with variable trends between 1991-2004, where a steady downward trend is seen",4,prolific/train-0-283458.png,TRUE,english,"{'question1': 'False', 'question10': '$0.71', 'question11': 'Skip', 'question12': 'False', 'question2': 'Great Britain', 'question3': '30-40 km', 'question4': 'True', 'question5': '17.6%', 'question6': 'Shanghai', 'question7': '$4.5', 'question8': '$50.54', 'question9': '40.51 Mbps'}",4.242533333,45855,5,9.12995,Nanortalik,2,first,10,18,"Nanortalik population growth dynamics, 1991-2010. Source: Statistics Greenland[12]",Nanortalik population dynamics,99,14,3,0.6111111111,0.4,0.1134967506,0.09507019818,0,0.6886775494,0.798,0,2,0,1
Bishop Auckland,Bishop Auckland / Demography,bb2fadcda24b6c13099ca221,"The visualization shows the average ages of Bishop Auckland residents compared to County Durham residents, as well as the whole of England and Wales.",4,prolific/train-0-245143.png,TRUE,English,"{'question1': 'False', 'question10': '$0.71', 'question11': '1 to 2', 'question12': 'False', 'question2': 'Great Britain', 'question3': '30-40 km', 'question4': 'True', 'question5': '10.9%', 'question6': 'Shanghai', 'question7': '$5.2', 'question8': '$50.54', 'question9': '40.51 Mbps'}",6.109716667,94570,4,13.78156667,Bishop Auckland,0,first,10,26,"""Population pyramid"" showing the breakdown of the Bishop Auckland's population vs Age compared with the figures for County Durham and England and Wales. Source:[9]","A bar chart comparing dividing the population into 5-year intervals, and comparing the percentage of the population of Bishop Auckland made up by each interval with the figures for England and Wales and County Durham. The graph shows that the towns population is broadly in line with that nationally, with the exception that Bishop Auckland has a much lower proportion of people aged 20 to 24 years.",149,32,71,0.7073170732,0.7948717949,0.7362522483,0.7393586636,0,0.7968633175,0.825,0,0,0,0
Tetration,Tetration / Inverse operations / Super-root / Other super-roots,bb2fadcda24b6c13099ca221,A graph of the function sqrt3 times x times s.,5,prolific/train-0-28614.png,TRUE,English,"{'question1': 'False', 'question10': '$0.71', 'question11': '1 to 2', 'question12': 'False', 'question2': 'Great Britain', 'question3': '30-40 km', 'question4': 'True', 'question5': '10.9%', 'question6': 'Shanghai', 'question7': '$5.2', 'question8': '$50.54', 'question9': '40.51 Mbps'}",6.109716667,68995,4,13.78156667,Tetration,1,first,10,11,"The graph
  
  
  
  y
  =
  
  
  
  x
  
  3
  
  
  
  
  s
  
  
  
  
  {\displaystyle y={\sqrt[{3}]{x}}_{s}}
  
 .",A line graph that starts at the origin and quickly makes an asymptote toward 2 as the value along the x-axis increases,46,27,22,0.4242424242,0.6206896552,0.6611992717,0.4547240436,0,0.4837883711,0.788,0,0,0,0
History of Georgetown University,History of Georgetown University / Early growth / Early student life,bb2fadcda24b6c13099ca221,A graph depicting the lower student enrollment in Medical and Law schools when compared to general Academy and College.,2,prolific/train-0-75149.png,TRUE,English,"{'question1': 'False', 'question10': '$0.71', 'question11': '1 to 2', 'question12': 'False', 'question2': 'Great Britain', 'question3': '30-40 km', 'question4': 'True', 'question5': '10.9%', 'question6': 'Shanghai', 'question7': '$5.2', 'question8': '$50.54', 'question9': '40.51 Mbps'}",6.109716667,116846,4,13.78156667,History of Georgetown University,2,first,10,20,Graph of student enrollment 1791—1888,"A line graph of years from 1791 to 1888 with three subjects, the first in blue representing the Academy and College rises up from 69 in 1791 to 333 at its peak in 1857 followed by sudden drop and leveling around 200. The second, in red, represents the Medical School and begins in 1851 quickly peaking at 127 and then falling again while the third, in yellow, represents the law school which begins in 1871 and steadily rises to 168.",119,5,87,0.4516129032,0.5476190476,0.5980316401,0.5376114845,0,0.6151080132,0.8486,0,0,0,1
Federal political financing in Canada,Federal political financing in Canada / Private funding / Cost of fundraising,8d1a862e694aab295edb0f02,Subsidized contributions raised more than Fundraising Expenses across the board. At least double or more of every party. Grand total is almost 3 times more.,4,prolific/train-0-14152.png,TRUE,English,"{'question1': 'False', 'question10': '$0.71', 'question11': '1 to 2', 'question12': 'False', 'question2': 'Great Britain', 'question3': '30-40 km', 'question4': 'True', 'question5': '17.6%', 'question6': 'Shanghai', 'question7': '$5.2', 'question8': '$50.54', 'question9': '40.51 Mbps'}",5.981683333,205646,3,17.31065,Federal political financing in Canada,0,first,11,28,Party-level fundraising costs vs. party-level contributions raised at top three Canadian federal parties in 2009 (source: Elections Canada[4]),Party-level fundraising costs vs. party-level contributions raised at top three Canadian federal parties in 2009,156,24,15,0.5238095238,0.5833333333,0.6928289533,0.696059227,0,0.9816362858,0.7324,0,1,1,2
Nanortalik,Nanortalik / Population,8d1a862e694aab295edb0f02,"Overall, the population is right where it was 19 years prior in 1991. It spiked upwards in the mid nineties and early two thousands.",3,prolific/train-0-283458.png,TRUE,English,"{'question1': 'False', 'question10': '$0.71', 'question11': '1 to 2', 'question12': 'False', 'question2': 'Great Britain', 'question3': '30-40 km', 'question4': 'True', 'question5': '17.6%', 'question6': 'Shanghai', 'question7': '$5.2', 'question8': '$50.54', 'question9': '40.51 Mbps'}",5.981683333,118746,3,17.31065,Nanortalik,1,first,11,27,"Nanortalik population growth dynamics, 1991-2010. Source: Statistics Greenland[12]",Nanortalik population dynamics,133,14,3,0.6388888889,0.5357142857,0.2744984925,0.1281722933,0,0.6886775494,0.6895,0,2,0,1
Ernie Toshack with the Australian cricket team in England in 1948,Ernie Toshack with the Australian cricket team in England in 1948 / Role,8d1a862e694aab295edb0f02,"It's been really up & down for Ernie Toshack. He's done better in the ""test"" innings than the other first-class innings.",4,prolific/train-0-24640.png,TRUE,English,"{'question1': 'False', 'question10': '$0.71', 'question11': '1 to 2', 'question12': 'False', 'question2': 'Great Britain', 'question3': '30-40 km', 'question4': 'True', 'question5': '17.6%', 'question6': 'Shanghai', 'question7': '$5.2', 'question8': '$50.54', 'question9': '40.51 Mbps'}",5.981683333,112366,3,17.31065,Ernie Toshack with the Australian cricket team in England in 1948,2,first,11,27,"A chart showing Toshack's batting performance during the tour. The runs scored per innings are represented by the bars, with the red bars being Test innings and the pink bars being other first-class innings. The blue line is the average of the five most recent innings and the dots indicate not outs.[10]","Toshack started the season with five first-class innings outside the Tests, and all were less than 10 and four were less than five, none were not out. He then scored two scores between 15 and 20 in the Tests, with a score of four outside the Tests in between. After scores of 1 and zero not out in the next two tour matches, he scored 12 not out in his third and final Test innings. He then finished with two in a tour match. All of his efforts beyond ten were in Tests, and he passed ten in all three Test innings, two of these being not out.",120,60,119,0.6578947368,0.625,0.5276270509,0.5732771158,0,0.585480094,0.7397,0,0,0,2
European debt crisis,European debt crisis / Evolution of the crisis / Portugal,5746ffe9055aec7112c0b221,"The data shows debt in percent of GDP for the country of Portugal vs the Eurozone average from the years 1999-2019, according to data from Oxford economics. Portugals percentage begins at 50% and gradually rises to 131 in 2015, before falling to 124 in 2019. The debt percentage is lower than the Eurozone average until 2006, at which Portugals debt percentage remains higher than the Eurozone average for the remaining years.",4,prolific/train-0-191651.png,TRUE,English,"{'question1': 'False', 'question10': '$0.71', 'question11': '1 to 2', 'question12': 'False', 'question2': 'Great Britain', 'question3': '30-40 km', 'question4': 'True', 'question5': '17.6%', 'question6': 'Shanghai', 'question7': '$5.2', 'question8': '$50.54', 'question9': '40.51 Mbps'}",6.613166667,216608,4,23.59841667,European debt crisis,0,first,11,78,Debt of Portugal compared to eurozone average since 1999,Portuguese debt compared to eurozone average,426,9,6,0.5714285714,0.4285714286,0.8461868763,0.7924925685,0,0.9336457253,0.8594,0,8,0,4
Electricity sector in Germany,Electricity sector in Germany / Electricity prices,5746ffe9055aec7112c0b221,"The data is presented as a pie chart representing the components of the German Power Price for the average household consumers in 2020, totaling 31,47 cent per kWh. The grid charges are the highest value, at 25,1%. Power generation or acquisition, and Sales is 22,4% of the price. Renewable surcharge is 21,5%. Value-added tax is 16%. Electricity tax is 6,5%. Concession fee of 1.66 Cent is 5,5%. Other levies make up the remaining 3,2%. Overall, taxes, levies, and surcharges make up 53% of the total price.",5,prolific/train-0-395010.png,TRUE,English,"{'question1': 'False', 'question10': '$0.71', 'question11': '1 to 2', 'question12': 'False', 'question2': 'Great Britain', 'question3': '30-40 km', 'question4': 'True', 'question5': '17.6%', 'question6': 'Shanghai', 'question7': '$5.2', 'question8': '$50.54', 'question9': '40.51 Mbps'}",6.613166667,386103,4,23.59841667,Electricity sector in Germany,1,first,11,109,Components of the German Electricity Price for Households Source,Components Electricity Price Germany,508,9,4,0.4791666667,0.3829787234,0.7470686436,0.6749097705,0,0.8207790852,0.917,0,19,0,3
Nanortalik,Nanortalik / Population,5746ffe9055aec7112c0b221,"The bar graph illustrates the rise and fall of population numbers of Nanortalik from 1991-2010, according to Statistics Greenland. The populations per year are as follows. 1991:1441, 1992:1483, 1993:1499, 1994:1508, 1995:1564, 1996:1527, 1997:1541, 1998:1506, 1999:1516, 2000:1538, 2001:1506, 2002:1544, 2003:1549, 2004:1529, 2005:1509, 2006:1476, 2007:1450, 2008:1445, 2009:1430, 2010:1448. The year 1995 saw the highest population, and the year 2009 saw the lowest.",4,prolific/train-0-283458.png,TRUE,English,"{'question1': 'False', 'question10': '$0.71', 'question11': '1 to 2', 'question12': 'False', 'question2': 'Great Britain', 'question3': '30-40 km', 'question4': 'True', 'question5': '17.6%', 'question6': 'Shanghai', 'question7': '$5.2', 'question8': '$50.54', 'question9': '40.51 Mbps'}",6.613166667,309536,4,23.59841667,Nanortalik,2,first,11,85,"Nanortalik population growth dynamics, 1991-2010. Source: Statistics Greenland[12]",Nanortalik population dynamics,467,14,3,0.7380952381,0.425,0.6895676851,0.5297656059,0,0.6886775494,0.8086,0,44,0,3
Nutaarmiut,Nutaarmiut / Population,f7e425612f36aa3600b1e872,Annual bar graph of the population,1,prolific/train-0-42178.png,TRUE,English,"{'question1': 'False', 'question10': '$0.71', 'question11': '1 to 2', 'question12': 'False', 'question2': 'Great Britain', 'question3': '30-40 km', 'question4': 'True', 'question5': '17.6%', 'question6': 'Shanghai', 'question7': '$4.5', 'question8': '$50.54', 'question9': '40.51 Mbps'}",6.637583333,79173,3,18.7769,Nutaarmiut,0,first,11,6,Nutaarmiut population growth dynamics in the last two decades. Source: Statistics Greenland[2],Nutaarmiut population dynamics,34,17,3,0.4333333333,0.4545454545,0.2830087543,0.3519662023,0,0.7322562337,0.7427,0,0,0,0
Federal political financing in Canada,Federal political financing in Canada / Private funding / Cost of fundraising,f7e425612f36aa3600b1e872,3-d bar graph showing fundraising expenses compared to contributions for each party individually and combined,1,prolific/train-0-14152.png,TRUE,English,"{'question1': 'False', 'question10': '$0.71', 'question11': '1 to 2', 'question12': 'False', 'question2': 'Great Britain', 'question3': '30-40 km', 'question4': 'True', 'question5': '17.6%', 'question6': 'Shanghai', 'question7': '$4.5', 'question8': '$50.54', 'question9': '40.51 Mbps'}",6.637583333,135306,3,18.7769,Federal political financing in Canada,1,first,11,15,Party-level fundraising costs vs. party-level contributions raised at top three Canadian federal parties in 2009 (source: Elections Canada[4]),Party-level fundraising costs vs. party-level contributions raised at top three Canadian federal parties in 2009,109,24,15,0.5526315789,0.6774193548,0.6745352745,0.6723890305,0,0.9816362858,0.787,0,1,0,0
Ernie Toshack with the Australian cricket team in England in 1948,Ernie Toshack with the Australian cricket team in England in 1948 / Role,f7e425612f36aa3600b1e872,"From May to Aug, runs scored per inning is shown. Highest being in June & July.",5,prolific/train-0-24640.png,TRUE,English,"{'question1': 'False', 'question10': '$0.71', 'question11': '1 to 2', 'question12': 'False', 'question2': 'Great Britain', 'question3': '30-40 km', 'question4': 'True', 'question5': '17.6%', 'question6': 'Shanghai', 'question7': '$4.5', 'question8': '$50.54', 'question9': '40.51 Mbps'}",6.637583333,289113,3,18.7769,Ernie Toshack with the Australian cricket team in England in 1948,2,first,11,19,"A chart showing Toshack's batting performance during the tour. The runs scored per innings are represented by the bars, with the red bars being Test innings and the pink bars being other first-class innings. The blue line is the average of the five most recent innings and the dots indicate not outs.[10]","Toshack started the season with five first-class innings outside the Tests, and all were less than 10 and four were less than five, none were not out. He then scored two scores between 15 and 20 in the Tests, with a score of four outside the Tests in between. After scores of 1 and zero not out in the next two tour matches, he scored 12 not out in his third and final Test innings. He then finished with two in a tour match. All of his efforts beyond ten were in Tests, and he passed ten in all three Test innings, two of these being not out.",80,60,119,0.6052631579,0.6153846154,0.4815381765,0.2532080412,0,0.585480094,0.7227,0,0,0,0
Green marketing,Green marketing / Adoptability / LOHAS,bfedc75d67814bbaee8de85d,% of general population in NMI defined consumer segments. 26% conventionals. 19% drifters. 19% naturalites. 19% unconcerned. 17% lohas.,2,prolific/train-0-480642.png,TRUE,English,"{'question1': 'False', 'question10': '$0.71', 'question11': '1 to 2', 'question12': 'False', 'question2': 'Great Britain', 'question3': '30-40 km', 'question4': 'True', 'question5': '17.6%', 'question6': 'Shanghai', 'question7': '$7.5', 'question8': '$50.54', 'question9': '40.51 Mbps'}",4.423433333,271323,3,16.25373333,Green marketing,0,first,11,30,The distribution of the different types of LOHAS.[26],The distribution of the different types of LOHAS.,135,12,9,0.4102564103,0.3783783784,0.3192741871,0.3139550984,0,0.9695470929,0.9663,0,5,0,0
Normally distributed and uncorrelated does not imply independent,Normally distributed and uncorrelated does not imply independent / Examples / A symmetric example,bfedc75d67814bbaee8de85d,Joint range of X {\displaystyle X} and Y {\displaystyle Y} . Darker indicates higher value of the density function. Creating an asymmetrical ‘X’ on an XY axis chart.,5,prolific/train-0-236684.png,TRUE,English,"{'question1': 'False', 'question10': '$0.71', 'question11': '1 to 2', 'question12': 'False', 'question2': 'Great Britain', 'question3': '30-40 km', 'question4': 'True', 'question5': '17.6%', 'question6': 'Shanghai', 'question7': '$7.5', 'question8': '$50.54', 'question9': '40.51 Mbps'}",4.423433333,136331,3,16.25373333,Normally distributed and uncorrelated does not imply independent,1,first,11,36,"Joint range of
  
  
  
  X
  
  
  {\displaystyle X}
  
  and
  
  
  
  Y
  
  
  {\displaystyle Y}
  
 . Darker indicates higher value of the density function.","Two normally distributed, uncorrelated but dependent variables.",165,24,9,0.8235294118,0.4864864865,0.9035309553,0.2573243678,0,0.216137737,0.831,0,0,1,1
Bishop Auckland,Bishop Auckland / Demography,bfedc75d67814bbaee8de85d,"The comparison between ‘England and Wales’, ‘County of Durham’, and ‘Bishop Auckland’. The percent of population with Age groups on an XY axis chart.",3,prolific/train-0-245143.png,TRUE,English,"{'question1': 'False', 'question10': '$0.71', 'question11': '1 to 2', 'question12': 'False', 'question2': 'Great Britain', 'question3': '30-40 km', 'question4': 'True', 'question5': '17.6%', 'question6': 'Shanghai', 'question7': '$7.5', 'question8': '$50.54', 'question9': '40.51 Mbps'}",4.423433333,150316,3,16.25373333,Bishop Auckland,2,first,11,34,"""Population pyramid"" showing the breakdown of the Bishop Auckland's population vs Age compared with the figures for County Durham and England and Wales. Source:[9]","A bar chart comparing dividing the population into 5-year intervals, and comparing the percentage of the population of Bishop Auckland made up by each interval with the figures for England and Wales and County Durham. The graph shows that the towns population is broadly in line with that nationally, with the exception that Bishop Auckland has a much lower proportion of people aged 20 to 24 years.",149,32,71,0.6444444444,0.7619047619,0.8164668083,0.799153924,0,0.7968633175,0.8506,0,0,0,0
Great Southern Group,Great Southern Group / Fall,80c4428b9633a51eb941c6c0,"From 1999 through 2002, total assets and net assets remained steady, with a sharp increase beginning in 2003 leading into 2009 where it has leveled off and peaked at a 900% increase.",3,prolific/train-0-105181.jpg,TRUE,"English, Spanish.","{'question1': 'False', 'question10': '$0.71', 'question11': '1 to 3', 'question12': 'Skip', 'question2': 'Great Britain', 'question3': '30-40 km', 'question4': 'True', 'question5': '17.6%', 'question6': 'Shanghai', 'question7': '$4.5', 'question8': '$50.54', 'question9': '40.51 Mbps'}",5.09225,126501,3,17.15258333,Great Southern Group,0,first,9,36,"Great Southern Group's assets. Net assets were ultimately limited by the company's ""unsustainable levels"" of debt.[4]","area graph with years on the x-axis, ranging from 1999 to 2008, and thousands of dollars on the y-axis. Two areas are shown: net assets climb until 2005 then stay at a similar level to 2008, below the 800 million dollar line; gross assets climb above net assets and are still increasing in 2008, where they are near the 1.8 billion dollar line",182,25,70,0.55,0.7179487179,0.3528643548,0.5181388855,0,0.3171207309,0.7837,0,5,0,2
Anatomy of an Epidemic,Anatomy of an Epidemic / Synopsis / Magic bullets,80c4428b9633a51eb941c6c0,"Both SSDI, SSI recipients with mental disability has continued to increase at a steady pace with Prozac introduced, with 2003 Total number of SSI and SDI payments to disabled mentally ill recepients peaking at 6,000,000.",5,prolific/train-0-29695.png,TRUE,"English, Spanish.","{'question1': 'False', 'question10': '$0.71', 'question11': '1 to 3', 'question12': 'Skip', 'question2': 'Great Britain', 'question3': '30-40 km', 'question4': 'True', 'question5': '17.6%', 'question6': 'Shanghai', 'question7': '$4.5', 'question8': '$50.54', 'question9': '40.51 Mbps'}",5.09225,252775,3,17.15258333,Anatomy of an Epidemic,1,first,9,38,"Number of Americans who received SSDI and SSI for mental disability in 1987 (blue) when Eli Lilly and Company introduced the antidepressive drug Prozac, compared to 2003 (red).",Chart showing increase (in red) over baseline (in blue) between 1987 and 2003,220,34,17,0.6595744681,0.4651162791,0.6048475504,0.1145393401,0,0.06947505474,0.6167,0,4,0,2
Cloture,Cloture / United States / Procedure,80c4428b9633a51eb941c6c0,"Cloture motions, votes on cloture and cloture invoked remained steady from 1917 with slight increases in 1925/1926, and 1945/1946, 20 years later, before leveling off to lowest numbers in 1955/1956. Cloture motions beginning in 1967 throughout 1974 increased sharply, following votes on cloture, and lastly following a similar pattern were cloture invoked. Which all 3 continued to increase in similar patterns following one another in the same pattern throughout until sharply peaking in 2007/2008, before tapering off.",4,prolific/train-0-76637.png,TRUE,"English, Spanish.","{'question1': 'False', 'question10': '$0.71', 'question11': '1 to 3', 'question12': 'Skip', 'question2': 'Great Britain', 'question3': '30-40 km', 'question4': 'True', 'question5': '17.6%', 'question6': 'Shanghai', 'question7': '$4.5', 'question8': '$50.54', 'question9': '40.51 Mbps'}",5.09225,170870,3,17.15258333,Cloture,2,first,9,87,"Cloture voting in the United States Senate , 1917−2014.[43]","Number of cloture motions filed, voted on, and invoked by the U.S. Senate, 1917−2014.",520,13,18,0.5813953488,0.6666666667,0.5936933756,0.6522400975,0,0.7984388471,1.01,0,13,0,5
Safety of electronic cigarettes,"Safety of electronic cigarettes / Fires, explosions, and other battery-related malfunctions",080c2c3082160c8ea3aeca8f,Cigarette sales have increased dramatically in recent years; a 2016 survey found that the number of e-cigarettes sold nearly reached the number of explosions.,3,prolific/train-0-407025.png,TRUE,English,"{'question1': 'False', 'question10': '$0.71', 'question11': '1 to 4', 'question12': 'Skip', 'question2': 'USA', 'question3': '30-40 km', 'question4': 'True', 'question5': '25.3%', 'question6': 'Shanghai', 'question7': '$4.5', 'question8': '$50.54', 'question9': '40.51 Mbps'}",11.62805,142300,2,25.09301667,Safety of electronic cigarettes,0,first,7,26,Graphic from a July 2016 United States Fire Administration (USFA) report entitled Electronic Cigarette Fires and Explosions in the United States 2009 – 2016.[326] There has been an increase in the number of severe and moderate injuries resulting from e-cigarette explosions and fires since 2014.[326] The USFA noted that this appears to correlate well with the e-cigarette sales trend.[326],Graphic from a July 2016 United States Fire Administration (USFA) report entitled Electronic Cigarette Fires and Explosions in the United States 2009 – 2016. There has been an increase in the number of severe and moderate injuries resulting from e-cigarette explosions and fires since 2014. The USFA noted that this appears to correlate well with the e-cigarette sales trend.,158,73,64,0.6041666667,0.6444444444,0.6955771446,0.6658993959,0,0.9825590849,0.7935,0,1,1,1
European debt crisis,European debt crisis / Evolution of the crisis / Portugal,080c2c3082160c8ea3aeca8f,Portugal's debt is nearly one and a half times greater than that of the rest of Europe.,3,prolific/train-0-191651.png,TRUE,English,"{'question1': 'False', 'question10': '$0.71', 'question11': '1 to 4', 'question12': 'Skip', 'question2': 'USA', 'question3': '30-40 km', 'question4': 'True', 'question5': '25.3%', 'question6': 'Shanghai', 'question7': '$4.5', 'question8': '$50.54', 'question9': '40.51 Mbps'}",11.62805,114929,2,25.09301667,European debt crisis,1,first,7,19,Debt of Portugal compared to eurozone average since 1999,Portuguese debt compared to eurozone average,87,9,6,0.6206896552,0.5769230769,0.7578625679,0.7197715044,0,0.9336457253,0.873,0,0,1,0
Great Southern Group,Great Southern Group / Fall,f477fa1a67243424248efbbd,"A graph depicting the assets of Great Southern Group with two sets of data depicted Net assets in the color green and total assets in the color red the graph includes data from 1999-2008 and accounts for assets up to $1,800,000.",3,prolific/train-0-105181.jpg,FALSE,English,"{'question1': 'False', 'question10': 'Skip', 'question11': 'Skip', 'question12': 'True', 'question2': 'Great Britain', 'question3': '30-40 km', 'question4': 'True', 'question5': '17.6%', 'question6': 'Shanghai', 'question7': '$4.5', 'question8': '$50.54', 'question9': '40.51 Mbps'}",4.623283333,153548,2,12.52481667,Great Southern Group,0,first,8,43,"Great Southern Group's assets. Net assets were ultimately limited by the company's ""unsustainable levels"" of debt.[4]","area graph with years on the x-axis, ranging from 1999 to 2008, and thousands of dollars on the y-axis. Two areas are shown: net assets climb until 2005 then stay at a similar level to 2008, below the 800 million dollar line; gross assets climb above net assets and are still increasing in 2008, where they are near the 1.8 billion dollar line",228,25,70,0.55,0.675,0.3707597256,0.5687100887,0,0.3171207309,1.033,2,5,0,1
InflateSail,InflateSail / Altitude loss,f477fa1a67243424248efbbd,A graph depicting the mean height in KM for a company INFLATESAIL the data is from 2017 and ranges from 480-380 the mean height decreased overtime.,3,prolific/train-0-183840.jpg,TRUE,English,"{'question1': 'False', 'question10': 'Skip', 'question11': 'Skip', 'question12': 'True', 'question2': 'Great Britain', 'question3': '30-40 km', 'question4': 'True', 'question5': '17.6%', 'question6': 'Shanghai', 'question7': '$4.5', 'question8': '$50.54', 'question9': '40.51 Mbps'}",4.623283333,102438,2,12.52481667,InflateSail,1,first,8,27,Change in average orbit height during August 2017[11],Change in average orbit height during August 2017,147,11,8,0.4285714286,0.45,0.2720342577,0.289262712,0,0.9874690771,0.7764,0,3,0,1
Elections in Croatia,Elections in Croatia / Parliamentary elections / Previous parliamentary elections,f477fa1a67243424248efbbd,The seven main political faction's in Croatian parliamentary elections results from 1992-2016 in line graph form.,2,prolific/train-0-472392.png,TRUE,English,"{'question1': 'False', 'question10': 'Skip', 'question11': 'Skip', 'question12': 'True', 'question2': 'Great Britain', 'question3': '30-40 km', 'question4': 'True', 'question5': '17.6%', 'question6': 'Shanghai', 'question7': '$4.5', 'question8': '$50.54', 'question9': '40.51 Mbps'}",4.623283333,101744,2,12.52481667,Elections in Croatia,2,first,8,18,"Croatian parliamentary election results, 1992–2016; parties winning 10 or more seats in any one election shown individually","Graph of Croatian election results, using differently-colored lines",115,19,9,0.7058823529,0.59375,0.6693137884,0.705055356,0,0.612041831,0.805,0,2,0,0
Ernie Toshack with the Australian cricket team in England in 1948,Ernie Toshack with the Australian cricket team in England in 1948 / Role,5a5cd625f4e3d85303bb797c,The pink bars are very low. There were only 3 instances where the test innings were signigantly higher than the first class innings. Average is between approximately 4 runs to 18. Average increased great deal towards last two months,2,prolific/train-0-24640.png,TRUE,english,"{'question1': 'True', 'question10': '$0.71', 'question11': '1 to 3', 'question12': 'False', 'question2': 'Great Britain', 'question3': '30-40 km', 'question4': 'True', 'question5': '25.3%', 'question6': 'Seoul', 'question7': '$4.5', 'question8': '$50.54', 'question9': '42.30 Mbps'}",6.0953,332829,3,20.95428333,Ernie Toshack with the Australian cricket team in England in 1948,1,first,6,42,"A chart showing Toshack's batting performance during the tour. The runs scored per innings are represented by the bars, with the red bars being Test innings and the pink bars being other first-class innings. The blue line is the average of the five most recent innings and the dots indicate not outs.[10]","Toshack started the season with five first-class innings outside the Tests, and all were less than 10 and four were less than five, none were not out. He then scored two scores between 15 and 20 in the Tests, with a score of four outside the Tests in between. After scores of 1 and zero not out in the next two tour matches, he scored 12 not out in his third and final Test innings. He then finished with two in a tour match. All of his efforts beyond ten were in Tests, and he passed ten in all three Test innings, two of these being not out.",234,60,119,0.7297297297,0.7368421053,0.6683912277,0.4591818154,0,0.585480094,0.8247,1,3,1,2
Safety of electronic cigarettes,"Safety of electronic cigarettes / Fires, explosions, and other battery-related malfunctions",5a5cd625f4e3d85303bb797c,"The caption is very adequate description of graph. Would only add that in 2009-2012 low incident. 2014 to 2016 alarming rate of increased sales correlated to higher (3,000) incidents",1,prolific/train-0-407025.png,TRUE,english,"{'question1': 'True', 'question10': '$0.71', 'question11': '1 to 3', 'question12': 'False', 'question2': 'Great Britain', 'question3': '30-40 km', 'question4': 'True', 'question5': '25.3%', 'question6': 'Seoul', 'question7': '$4.5', 'question8': '$50.54', 'question9': '42.30 Mbps'}",6.0953,202937,3,20.95428333,Safety of electronic cigarettes,2,first,6,33,Graphic from a July 2016 United States Fire Administration (USFA) report entitled Electronic Cigarette Fires and Explosions in the United States 2009 – 2016.[326] There has been an increase in the number of severe and moderate injuries resulting from e-cigarette explosions and fires since 2014.[326] The USFA noted that this appears to correlate well with the e-cigarette sales trend.[326],Graphic from a July 2016 United States Fire Administration (USFA) report entitled Electronic Cigarette Fires and Explosions in the United States 2009 – 2016. There has been an increase in the number of severe and moderate injuries resulting from e-cigarette explosions and fires since 2014. The USFA noted that this appears to correlate well with the e-cigarette sales trend.,184,73,64,0.66,0.6666666667,0.2592797875,0.260027349,0,0.9825590849,0.8496,0,6,0,2
Great Southern Group,Great Southern Group / Fall,0091af143849d9b6fb0d4034,"The graph shows total and net assets by year from 1999 to 2008 in AU$000. Values are: 1999 total assets (ta) 175,000, net assets (na)100,000. 2000 ta 205,000, na 190,000; 2001 ta 200,000, na 197,000; 2002 ta 200,000, na 198,000; 2003 ta 250,000, na 205,000; 2004 ta 600,000, na 400,000; 2005 ta 1,000,000, na 760,000; 2006 ta 1,600,000, na 760,000; 2007 ta 1,700,000, na 760,000; 2008 ta 1,800,000, na 750,000.",3,prolific/train-0-105181.jpg,TRUE,English,"{'question1': 'False', 'question10': '$0.71', 'question11': '1 to 3', 'question12': 'Skip', 'question2': 'Great Britain', 'question3': '30-40 km', 'question4': 'True', 'question5': '17.6%', 'question6': 'Shanghai', 'question7': '$7.5', 'question8': '$50.54', 'question9': '40.51 Mbps'}",4.404683333,379739,3,20.09695,Great Southern Group,0,first,9,99,"Great Southern Group's assets. Net assets were ultimately limited by the company's ""unsustainable levels"" of debt.[4]","area graph with years on the x-axis, ranging from 1999 to 2008, and thousands of dollars on the y-axis. Two areas are shown: net assets climb until 2005 then stay at a similar level to 2008, below the 800 million dollar line; gross assets climb above net assets and are still increasing in 2008, where they are near the 1.8 billion dollar line",410,25,70,0.42,0.6888888889,0.3244651556,0.6493719816,0,0.3171207309,0.8496,0,57,0,0
Normally distributed and uncorrelated does not imply independent,Normally distributed and uncorrelated does not imply independent / Examples / A symmetric example,0091af143849d9b6fb0d4034,"The image is of a graph with small circles used to plot the data. Both the Y and X axis have the same units, ranging from -3 to 3, for 7 values. The overall visual image is of the letter X, which is fainter near the end values of -3 and 3, and very bold from -2 to 2.",3,prolific/train-0-236684.png,TRUE,English,"{'question1': 'False', 'question10': '$0.71', 'question11': '1 to 3', 'question12': 'Skip', 'question2': 'Great Britain', 'question3': '30-40 km', 'question4': 'True', 'question5': '17.6%', 'question6': 'Shanghai', 'question7': '$7.5', 'question8': '$50.54', 'question9': '40.51 Mbps'}",4.404683333,159423,3,20.09695,Normally distributed and uncorrelated does not imply independent,1,first,9,66,"Joint range of
  
  
  
  X
  
  
  {\displaystyle X}
  
  and
  
  
  
  Y
  
  
  {\displaystyle Y}
  
 . Darker indicates higher value of the density function.","Two normally distributed, uncorrelated but dependent variables.",267,24,9,0.55,0.6666666667,0.4099160433,0.157949388,0,0.216137737,0.8105,0,7,0,0
Cloture,Cloture / United States / Procedure,0091af143849d9b6fb0d4034,"This is a line graph showing three values: cloture invoked, votes on cloture and cloture motions filed. Data values from 1917-1964 are very small, usually zero, but never higher than 5. Starting in 1965 values increase with peaks in 1973, 1987, 1997 and 2007. Motions filed is always largest (or equal to other values) Votes on Cloture is next largest, and Cloture invoked is smallest. In the peak year, 2007, values were 140, 110 and 60.",5,prolific/train-0-76637.png,TRUE,English,"{'question1': 'False', 'question10': '$0.71', 'question11': '1 to 3', 'question12': 'Skip', 'question2': 'Great Britain', 'question3': '30-40 km', 'question4': 'True', 'question5': '17.6%', 'question6': 'Shanghai', 'question7': '$7.5', 'question8': '$50.54', 'question9': '40.51 Mbps'}",4.404683333,294267,3,20.09695,Cloture,2,first,9,93,"Cloture voting in the United States Senate , 1917−2014.[43]","Number of cloture motions filed, voted on, and invoked by the U.S. Senate, 1917−2014.",439,13,18,0.4905660377,0.5576923077,0.502928257,0.5673117638,0,0.7984388471,1.018,0,12,0,5
Bootham Crescent,Bootham Crescent / Records,67bc0ef1ba6bdf3eac29a04b,A chart showing York City's highest and average league attendance declining gradually between 1932 and 2015.,3,prolific/train-0-62319.png,TRUE,English,"{'question1': 'False', 'question10': '$0.80', 'question11': '1 to 2', 'question12': 'False', 'question2': 'Great Britain', 'question3': '30-40 km', 'question4': 'True', 'question5': '17.6%', 'question6': 'Shanghai', 'question7': '$7.5', 'question8': '$50.54', 'question9': '40.51 Mbps'}",3.3428,54648,5,7.893133333,Bootham Crescent,0,first,10,18,York City's highest and average league attendances at Bootham Crescent from the 1932–33 season,Graph showing the highest and average league attendances at the Bootham Crescent association football ground,108,15,15,0.7142857143,0.5277777778,0.6782772541,0.4472973943,0,0.6697953343,0.8066,0,2,0,2
Bishop Auckland,Bishop Auckland / Demography,67bc0ef1ba6bdf3eac29a04b,"A chart comparing the breakdown in population by age for the following regions: England and Wales, County Durham, and Bishop Auckland. All three regions have similar breakdowns across ages with all three peaking between the ages of 30-54.",4,prolific/train-0-245143.png,TRUE,English,"{'question1': 'False', 'question10': '$0.80', 'question11': '1 to 2', 'question12': 'False', 'question2': 'Great Britain', 'question3': '30-40 km', 'question4': 'True', 'question5': '17.6%', 'question6': 'Shanghai', 'question7': '$7.5', 'question8': '$50.54', 'question9': '40.51 Mbps'}",3.3428,85654,5,7.893133333,Bishop Auckland,1,first,10,43,"""Population pyramid"" showing the breakdown of the Bishop Auckland's population vs Age compared with the figures for County Durham and England and Wales. Source:[9]","A bar chart comparing dividing the population into 5-year intervals, and comparing the percentage of the population of Bishop Auckland made up by each interval with the figures for England and Wales and County Durham. The graph shows that the towns population is broadly in line with that nationally, with the exception that Bishop Auckland has a much lower proportion of people aged 20 to 24 years.",238,32,71,0.7045454545,0.875,0.7350649834,0.7512217164,0,0.7968633175,0.854,0,2,0,1
InflateSail,InflateSail / Altitude loss,67bc0ef1ba6bdf3eac29a04b,A chart showing the altitude of InflateSail declining gradually from 470 km to 390 km during August 2017.,1,prolific/train-0-183840.jpg,TRUE,English,"{'question1': 'False', 'question10': '$0.80', 'question11': '1 to 2', 'question12': 'False', 'question2': 'Great Britain', 'question3': '30-40 km', 'question4': 'True', 'question5': '17.6%', 'question6': 'Shanghai', 'question7': '$7.5', 'question8': '$50.54', 'question9': '40.51 Mbps'}",3.3428,43256,5,7.893133333,InflateSail,2,first,10,19,Change in average orbit height during August 2017[11],Change in average orbit height during August 2017,105,11,8,0.5,0.5294117647,0.432185322,0.4502781034,0,0.9874690771,0.816,0,3,0,1
InflateSail,InflateSail / Altitude loss,efe6ccbfe2bf8e8c2f6f048d,There is a downward trajectory line right left to right. The x-axis or height indicates the mean height in kilometers and the y-axis represents a specific time.,2,prolific/train-0-183840.jpg,TRUE,English,"{'question1': 'False', 'question10': 'Skip', 'question11': '1 to 3', 'question12': 'False', 'question2': 'USA', 'question3': '30-40 km', 'question4': 'True', 'question5': '17.6%', 'question6': 'Shanghai', 'question7': '$6.1', 'question8': '$50.54', 'question9': '40.51 Mbps'}",3.087766667,63004,5,10.76643333,InflateSail,0,first,9,29,Change in average orbit height during August 2017[11],Change in average orbit height during August 2017,160,11,8,0.3333333333,0.3529411765,0.214755252,0.2376864702,0,0.9874690771,0.7334,0,0,1,1
InflateSail,InflateSail / Altitude loss,efe6ccbfe2bf8e8c2f6f048d,There is a downward trajectory line left to right starting at 480km to 390km. The x-axis or height indicates the mean height in kilometers and the y-axis represents a specific time in August 2017.,2,prolific/train-0-183840.jpg,TRUE,English,"{'question1': 'False', 'question10': 'Skip', 'question11': '1 to 3', 'question12': 'False', 'question2': 'USA', 'question3': '30-40 km', 'question4': 'True', 'question5': '17.6%', 'question6': 'Shanghai', 'question7': '$6.1', 'question8': '$50.54', 'question9': '40.51 Mbps'}",3.087766667,28892,5,10.76643333,InflateSail,0,second,9,36,Change in average orbit height during August 2017[11],Change in average orbit height during August 2017,196,11,8,0.45,0.4736842105,0.4922620654,0.529704988,0,0.9874690771,0.766,0,1,1,1
Federal political financing in Canada,Federal political financing in Canada / Private funding / Cost of fundraising,efe6ccbfe2bf8e8c2f6f048d,There are three bars that each represent a different political party in Canada. The height of the bar represents the amount in millions. The Conversative Party has raised $17.7 million dollars with $7 million in fundraising expenses. The Liberal Party has raised $9.06 million dollars with $2 million in fundraising expenses. The New Democratic Party has raised $4.01 million dollars with $2 million in fundraising expenses. The total of all three parties combined is $30.77 million dollars raised with $11.19 million being expenses.,3,prolific/train-0-14152.png,TRUE,English,"{'question1': 'False', 'question10': 'Skip', 'question11': '1 to 3', 'question12': 'False', 'question2': 'USA', 'question3': '30-40 km', 'question4': 'True', 'question5': '17.6%', 'question6': 'Shanghai', 'question7': '$6.1', 'question8': '$50.54', 'question9': '40.51 Mbps'}",3.087766667,143549,5,10.76643333,Federal political financing in Canada,1,first,9,97,Party-level fundraising costs vs. party-level contributions raised at top three Canadian federal parties in 2009 (source: Elections Canada[4]),Party-level fundraising costs vs. party-level contributions raised at top three Canadian federal parties in 2009,533,24,15,0.5869565217,0.65,0.7174862623,0.7025758028,0,0.9816362858,0.6426,0,13,0,4
European debt crisis,European debt crisis / Evolution of the crisis / Portugal,efe6ccbfe2bf8e8c2f6f048d,"The graph represents Portugal's Debt in percent of GDP vs Eurozone's average. There is a data point for every year from 1999 to 2019. Portugal starts off at 51%, lower than Eurozone. Between 2006-2008, both Portugal and Eurozone are about the same, hovering near 70%. However, Portugal rises beyond Eurozone to a peak of 130 in 2013, and has since dropped by 1 every year. Eurozone has stayed steady below 100 and is dropping consistently since 2013.",4,prolific/train-0-191651.png,TRUE,English,"{'question1': 'False', 'question10': 'Skip', 'question11': '1 to 3', 'question12': 'False', 'question2': 'USA', 'question3': '30-40 km', 'question4': 'True', 'question5': '17.6%', 'question6': 'Shanghai', 'question7': '$6.1', 'question8': '$50.54', 'question9': '40.51 Mbps'}",3.087766667,156540,5,10.76643333,European debt crisis,2,first,9,92,Debt of Portugal compared to eurozone average since 1999,Portuguese debt compared to eurozone average,451,9,6,0.5333333333,0.4,0.7741143703,0.7132707238,0,0.9336457253,0.8564,0,11,1,5
Federal political financing in Canada,Federal political financing in Canada / Private funding / Cost of fundraising,fb3f405c3c1127296f38fc6f,"There are a total of eighth bars represented as four in the front and four directly behind. The four bars in the front represent fundraising expenses, and the four bars in the back represent subsidized contributions raised. Each pairing represents a party: conservative, liberal, and new democratic. The last pairing in the total of the three parties. The increment is by the $5 million, and the maximum is $30 million.",1,prolific/train-0-14152.png,FALSE,Taishanese Chinese,"{'question1': 'False', 'question10': '$0.71', 'question11': '1 to 2', 'question12': 'False', 'question2': 'Great Britain', 'question3': '30-40 km', 'question4': 'True', 'question5': '17.6%', 'question6': 'Shanghai', 'question7': '$4.5', 'question8': '$50.54', 'question9': '40.51 Mbps'}",3.237966667,125997,2,9.7205,Federal political financing in Canada,0,first,11,82,Party-level fundraising costs vs. party-level contributions raised at top three Canadian federal parties in 2009 (source: Elections Canada[4]),Party-level fundraising costs vs. party-level contributions raised at top three Canadian federal parties in 2009,419,24,15,0.5454545455,0.5641025641,0.6036467552,0.5848658085,0,0.9816362858,0.7188,0,2,0,2
Great Southern Group,Great Southern Group / Fall,fb3f405c3c1127296f38fc6f,"This is a graph that shows the yearly total values: total asset and net assets. It is in increments of 200,000, with the maximum being 2,000,000.",3,prolific/train-0-105181.jpg,FALSE,Taishanese Chinese,"{'question1': 'False', 'question10': '$0.71', 'question11': '1 to 2', 'question12': 'False', 'question2': 'Great Britain', 'question3': '30-40 km', 'question4': 'True', 'question5': '17.6%', 'question6': 'Shanghai', 'question7': '$4.5', 'question8': '$50.54', 'question9': '40.51 Mbps'}",3.237966667,138218,2,9.7205,Great Southern Group,1,first,11,30,"Great Southern Group's assets. Net assets were ultimately limited by the company's ""unsustainable levels"" of debt.[4]","area graph with years on the x-axis, ranging from 1999 to 2008, and thousands of dollars on the y-axis. Two areas are shown: net assets climb until 2005 then stay at a similar level to 2008, below the 800 million dollar line; gross assets climb above net assets and are still increasing in 2008, where they are near the 1.8 billion dollar line",145,25,70,0.5789473684,0.8055555556,0.2392946482,0.5993816853,0,0.3171207309,0.8394,0,5,0,2
Green marketing,Green marketing / Adoptability / LOHAS,fb3f405c3c1127296f38fc6f,"This is a pie chart with five categories: LOHAs, naturalites, drifters, conventionals, and unconcerned.",1,prolific/train-0-480642.png,TRUE,Taishanese Chinese,"{'question1': 'False', 'question10': '$0.71', 'question11': '1 to 2', 'question12': 'False', 'question2': 'Great Britain', 'question3': '30-40 km', 'question4': 'True', 'question5': '17.6%', 'question6': 'Shanghai', 'question7': '$4.5', 'question8': '$50.54', 'question9': '40.51 Mbps'}",3.237966667,48717,2,9.7205,Green marketing,2,first,11,20,The distribution of the different types of LOHAS.[26],The distribution of the different types of LOHAS.,103,12,9,0.5588235294,0.6333333333,0.618889451,0.6169984341,0,0.9695470929,0.7363,0,0,0,0
Bootham Crescent,Bootham Crescent / Records,18b2b048c3f57a0237d6f132,A line graph of the York City F.C.'S LEAGUE attendances of Bootham Crescent from 1932 broken down in years,5,prolific/train-0-62319.png,TRUE,English,"{'question1': 'False', 'question10': '$0.71', 'question11': '1 to 3', 'question12': 'False', 'question2': 'Great Britain', 'question3': '30-40 km', 'question4': 'True', 'question5': '25.3%', 'question6': 'Shanghai', 'question7': '$7.5', 'question8': '$50.54', 'question9': '40.51 Mbps'}",7.268133333,95321,2,12.31338333,Bootham Crescent,0,first,9,21,York City's highest and average league attendances at Bootham Crescent from the 1932–33 season,Graph showing the highest and average league attendances at the Bootham Crescent association football ground,106,15,15,0.65,0.5641025641,0.7846936584,0.6283167601,0,0.6697953343,0.93,0,1,0,1
Cloture,Cloture / United States / Procedure,18b2b048c3f57a0237d6f132,a line graph broken down by years showing the closure voting from the us senate from 1917 to 2014,3,prolific/train-0-76637.png,TRUE,English,"{'question1': 'False', 'question10': '$0.71', 'question11': '1 to 3', 'question12': 'False', 'question2': 'Great Britain', 'question3': '30-40 km', 'question4': 'True', 'question5': '25.3%', 'question6': 'Shanghai', 'question7': '$7.5', 'question8': '$50.54', 'question9': '40.51 Mbps'}",7.268133333,44823,2,12.31338333,Cloture,1,first,9,19,"Cloture voting in the United States Senate , 1917−2014.[43]","Number of cloture motions filed, voted on, and invoked by the U.S. Senate, 1917−2014.",97,13,18,0.5526315789,0.7428571429,0.5865060687,0.5467642546,0,0.7984388471,0.9966,0,2,0,1
Elections in Croatia,Elections in Croatia / Parliamentary elections / Previous parliamentary elections,18b2b048c3f57a0237d6f132,a line graph showing the different elections in Croatia from 1992 to 2016,4,prolific/train-0-472392.png,TRUE,English,"{'question1': 'False', 'question10': '$0.71', 'question11': '1 to 3', 'question12': 'False', 'question2': 'Great Britain', 'question3': '30-40 km', 'question4': 'True', 'question5': '25.3%', 'question6': 'Shanghai', 'question7': '$7.5', 'question8': '$50.54', 'question9': '40.51 Mbps'}",7.268133333,38531,2,12.31338333,Elections in Croatia,2,first,9,13,"Croatian parliamentary election results, 1992–2016; parties winning 10 or more seats in any one election shown individually","Graph of Croatian election results, using differently-colored lines",73,19,9,0.7666666667,0.5862068966,0.6760852933,0.8639086485,0,0.612041831,0.8145,0,2,0,0
InflateSail,InflateSail / Altitude loss,84544a359e3f0b9463133a8f,"Chart showing the change in average orbit height during August 2017. There is a decline over the course of the month, starting at 471 km at the beginning of the month and curving downward, ending at 390 km at the end of the month.",4,prolific/train-0-183840.jpg,TRUE,English,"{'question1': 'False', 'question10': '$0.71', 'question11': 'Skip', 'question12': 'False', 'question2': 'Great Britain', 'question3': '30-40 km', 'question4': 'True', 'question5': '17.6%', 'question6': 'Shanghai', 'question7': '$4.5', 'question8': '$50.54', 'question9': '40.51 Mbps'}",5.8929,171930,3,19.39206667,InflateSail,0,first,10,48,Change in average orbit height during August 2017[11],Change in average orbit height during August 2017,231,11,8,0.6,0.6363636364,0.8372923136,0.8477319479,0,0.9874690771,0.745,0,3,1,1
European debt crisis contagion,European debt crisis contagion,84544a359e3f0b9463133a8f,"Line chart depicting Sovereign CDS loss of confidence in creditworthiness of 11 EU countries. There is pronounced spike in Greece's creditworthiness, climbing from $500,000 in July 2011 to 25 million by February 2012. Greece's creditworthiness plummets to 6 million in April 2012 and bounces back up to 17 million by January 2013.",4,prolific/train-0-359850.png,TRUE,English,"{'question1': 'False', 'question10': '$0.71', 'question11': 'Skip', 'question12': 'False', 'question2': 'Great Britain', 'question3': '30-40 km', 'question4': 'True', 'question5': '17.6%', 'question6': 'Shanghai', 'question7': '$4.5', 'question8': '$50.54', 'question9': '40.51 Mbps'}",5.8929,400708,3,19.39206667,European debt crisis contagion,1,first,10,59,"Sovereign CDS showing a temporary loss of confidence in creditworthiness of certain EU countries. The left axis is in basis points; a level of 1,000 means it costs $1 million to protect $10 million of debt for five years.",Sovereign credit default swaps for EU countries in 2010-2013,330,44,9,0.6875,0.5434782609,0.7016785741,0.3568044901,0,0.3145678043,0.7363,0,10,0,4
Normally distributed and uncorrelated does not imply independent,Normally distributed and uncorrelated does not imply independent / Examples / A symmetric example,84544a359e3f0b9463133a8f,"Density chart illustrating Joint range of X {\displaystyle X} and Y {\displaystyle Y}. Both X & Y axis gets darker and denser as it gets closer to 0,0, creating the appearance of an X at the center (intersecting lines)",5,prolific/train-0-236684.png,TRUE,English,"{'question1': 'False', 'question10': '$0.71', 'question11': 'Skip', 'question12': 'False', 'question2': 'Great Britain', 'question3': '30-40 km', 'question4': 'True', 'question5': '17.6%', 'question6': 'Shanghai', 'question7': '$4.5', 'question8': '$50.54', 'question9': '40.51 Mbps'}",5.8929,140244,3,19.39206667,Normally distributed and uncorrelated does not imply independent,2,first,10,47,"Joint range of
  
  
  
  X
  
  
  {\displaystyle X}
  
  and
  
  
  
  Y
  
  
  {\displaystyle Y}
  
 . Darker indicates higher value of the density function.","Two normally distributed, uncorrelated but dependent variables.",218,24,9,0.75,0.4358974359,0.7558504343,0.2799265981,0,0.216137737,0.823,0,2,0,0
Anatomy of an Epidemic,Anatomy of an Epidemic / Synopsis / Magic bullets,493b5ccf0a484dbef5c8463f,The image included on this page contains a bar graph depicting a comparison of data from 1987 and 2003. The y-axis shows the number of recipients that were described in the caption and spans from 0 to 6 million recipients. The x-axis shows the amount of payments the recipients received and spans from 1 to 5 payments. The bar graph shows that the number of both the recipients and payments drastically increased in 2003 in comparison to 1987.,2,prolific/train-0-29695.png,TRUE,English,"{'question1': 'False', 'question10': '$0.71', 'question11': '1 to 4', 'question12': 'False', 'question2': 'Great Britain', 'question3': '30-40 km', 'question4': 'True', 'question5': '17.6%', 'question6': 'Shanghai', 'question7': 'Skip', 'question8': '$50.54', 'question9': '40.51 Mbps'}",12.61016667,612309,4,45.76018333,Anatomy of an Epidemic,0,first,10,82,"Number of Americans who received SSDI and SSI for mental disability in 1987 (blue) when Eli Lilly and Company introduced the antidepressive drug Prozac, compared to 2003 (red).",Chart showing increase (in red) over baseline (in blue) between 1987 and 2003,443,34,17,0.625,0.6578947368,0.1969458461,0.4338900745,0,0.06947505474,0.7183,0,8,0,1
Anatomy of an Epidemic,Anatomy of an Epidemic / Synopsis / Magic bullets,493b5ccf0a484dbef5c8463f,"The image included on this page contains a bar graph depicting a comparison of data from 1987 and 2003. The y-axis shows the number of recipients that were described in the caption, and spans from 0 to 6 million recipients. The x-axis shows the amount of payments the recipients received and spans from 1 to 5 payments. 500,000 recipients received 1 payment in 1987 while 1.5 million recipients received 1 payment in 2003. 2.5 million recipients received 2 payments in 1987 while 4 million recipients received 2 payments in 2003. Just under 3.5 million recipients received 3 payments in 1987 while just under 6 million recipients received 3 payments in 2003. Under 500,000 recipients received 4 payments in both 1987 and 2003, though more recipients received the 4 payments in 2003 than in 1987. Just over 3 million recipients received 5 payments in 1987 while 5.5 million recipients received payments in 2003.",2,prolific/train-0-29695.png,TRUE,English,"{'question1': 'False', 'question10': '$0.71', 'question11': '1 to 4', 'question12': 'False', 'question2': 'Great Britain', 'question3': '30-40 km', 'question4': 'True', 'question5': '17.6%', 'question6': 'Shanghai', 'question7': 'Skip', 'question8': '$50.54', 'question9': '40.51 Mbps'}",12.61016667,592682,4,45.76018333,Anatomy of an Epidemic,0,second,10,162,"Number of Americans who received SSDI and SSI for mental disability in 1987 (blue) when Eli Lilly and Company introduced the antidepressive drug Prozac, compared to 2003 (red).",Chart showing increase (in red) over baseline (in blue) between 1987 and 2003,910,34,17,0.5961538462,0.5813953488,0.2835954726,0.2511576712,0,0.06947505474,0.704,0,42,1,0
European debt crisis,European debt crisis / Evolution of the crisis / Portugal,493b5ccf0a484dbef5c8463f,"The image on this page features a line graph. The y-axis shows the Debt in Percent of GDP ranging from 0 to 150% in increments of 50. The x-axis shows Years from 1999 to 2019. The graph shows Portugal experienced a large increase in comparison to the Eurozone average starting in 2008 until 2014. After Portugal's peak debt percentage in 2014, the debt percentage has steadily started to decline.",1,prolific/train-0-191651.png,TRUE,English,"{'question1': 'False', 'question10': '$0.71', 'question11': '1 to 4', 'question12': 'False', 'question2': 'Great Britain', 'question3': '30-40 km', 'question4': 'True', 'question5': '17.6%', 'question6': 'Shanghai', 'question7': 'Skip', 'question8': '$50.54', 'question9': '40.51 Mbps'}",12.61016667,344077,4,45.76018333,European debt crisis,1,first,10,77,Debt of Portugal compared to eurozone average since 1999,Portuguese debt compared to eurozone average,396,9,6,0.5454545455,0.4090909091,0.8262706995,0.7793368101,0,0.9336457253,0.859,0,8,0,3
European debt crisis,European debt crisis / Evolution of the crisis / Portugal,493b5ccf0a484dbef5c8463f,"The image on this page features a line graph. The y-axis shows the Debt in Percent of GDP, ranging from 0 to 150%, in increments of 50. The x-axis shows Years from 1999 to 2019. The graph shows Portugal experienced a large increase in comparison to the Eurozone average starting in 2008 until 2014. After Portugal's peak debt percentage in 2014, the debt percentage has steadily started to decline.",1,prolific/train-0-191651.png,TRUE,English,"{'question1': 'False', 'question10': '$0.71', 'question11': '1 to 4', 'question12': 'False', 'question2': 'Great Britain', 'question3': '30-40 km', 'question4': 'True', 'question5': '17.6%', 'question6': 'Shanghai', 'question7': 'Skip', 'question8': '$50.54', 'question9': '40.51 Mbps'}",12.61016667,19887,4,45.76018333,European debt crisis,1,second,10,79,Debt of Portugal compared to eurozone average since 1999,Portuguese debt compared to eurozone average,398,9,6,0.5454545455,0.4090909091,0.8146799803,0.7652448416,0,0.9336457253,0.8564,0,8,0,3
Bishop Auckland,Bishop Auckland / Demography,493b5ccf0a484dbef5c8463f,The image on this page features a bar graph comparing the three counties listed in the caption. The y-axis show the Percentage of the Population while the x-axis shows the Age Groups. The percentages range from 0 to 9% in increments of 1. The Age Groups range from 0 to 90+ in increments of 4 years.,3,prolific/train-0-245143.png,TRUE,English,"{'question1': 'False', 'question10': '$0.71', 'question11': '1 to 4', 'question12': 'False', 'question2': 'Great Britain', 'question3': '30-40 km', 'question4': 'True', 'question5': '17.6%', 'question6': 'Shanghai', 'question7': 'Skip', 'question8': '$50.54', 'question9': '40.51 Mbps'}",12.61016667,194556,4,45.76018333,Bishop Auckland,2,first,10,61,"""Population pyramid"" showing the breakdown of the Bishop Auckland's population vs Age compared with the figures for County Durham and England and Wales. Source:[9]","A bar chart comparing dividing the population into 5-year intervals, and comparing the percentage of the population of Bishop Auckland made up by each interval with the figures for England and Wales and County Durham. The graph shows that the towns population is broadly in line with that nationally, with the exception that Bishop Auckland has a much lower proportion of people aged 20 to 24 years.",299,32,71,0.5319148936,0.6363636364,0.439044863,0.5488010645,0,0.7968633175,0.878,0,6,0,2
Tiilerilaaq,Tiilerilaaq / Population,68a29732e10c30e62bff25ae,A bar graph showing the declining population,1,prolific/train-0-448110.png,TRUE,english,"{'question1': 'False', 'question10': '$0.71', 'question11': '1 to 1', 'question12': 'False', 'question2': 'Great Britain', 'question3': '30-40 km', 'question4': 'True', 'question5': '17.6%', 'question6': 'Shanghai', 'question7': '$4.5', 'question8': '$50.54', 'question9': '40.51 Mbps'}",3.733383333,27984,4,8.054366667,Tiilerilaaq,0,first,10,7,Tiilerilaaq population growth dynamics in the last two decades. Source: Statistics Greenland[4],Tiilerilaaq population dynamics,44,17,3,0.5666666667,0.6086956522,0.3917518258,0.4919290543,0,0.6924266815,0.725,0,0,0,1
Ikerasaarsuk,Ikerasaarsuk / Population,68a29732e10c30e62bff25ae,A bar graph showing population growth increasing over time with a few periods of modest decreasing,4,prolific/train-0-370954.png,TRUE,english,"{'question1': 'False', 'question10': '$0.71', 'question11': '1 to 1', 'question12': 'False', 'question2': 'Great Britain', 'question3': '30-40 km', 'question4': 'True', 'question5': '17.6%', 'question6': 'Shanghai', 'question7': '$4.5', 'question8': '$50.54', 'question9': '40.51 Mbps'}",3.733383333,65896,4,8.054366667,Ikerasaarsuk,1,first,10,16,Ikerasaarsuk population growth dynamics in the last two decades. Source: Statistics Greenland[4],Ikerasaarsuk population dynamics,98,17,3,0.5625,0.6,0.4370597601,0.4440165162,0,0.7536988854,0.7295,0,0,2,2
Ernie Toshack with the Australian cricket team in England in 1948,Ernie Toshack with the Australian cricket team in England in 1948 / Role,68a29732e10c30e62bff25ae,"A combination of different graphs on a single chart, including red and pink bars, a blue line, and blue dots.",5,prolific/train-0-24640.png,TRUE,english,"{'question1': 'False', 'question10': '$0.71', 'question11': '1 to 1', 'question12': 'False', 'question2': 'Great Britain', 'question3': '30-40 km', 'question4': 'True', 'question5': '17.6%', 'question6': 'Shanghai', 'question7': '$4.5', 'question8': '$50.54', 'question9': '40.51 Mbps'}",3.733383333,66187,4,8.054366667,Ernie Toshack with the Australian cricket team in England in 1948,2,first,10,24,"A chart showing Toshack's batting performance during the tour. The runs scored per innings are represented by the bars, with the red bars being Test innings and the pink bars being other first-class innings. The blue line is the average of the five most recent innings and the dots indicate not outs.[10]","Toshack started the season with five first-class innings outside the Tests, and all were less than 10 and four were less than five, none were not out. He then scored two scores between 15 and 20 in the Tests, with a score of four outside the Tests in between. After scores of 1 and zero not out in the next two tour matches, he scored 12 not out in his third and final Test innings. He then finished with two in a tour match. All of his efforts beyond ten were in Tests, and he passed ten in all three Test innings, two of these being not out.",110,60,119,0.696969697,0.6571428571,0.3204512596,-0.01689213142,0,0.585480094,0.6987,4,0,0,0
Tiilerilaaq,Tiilerilaaq / Population,eb5cb1fa4af9aad4594437a9,Yearly population of Tiilerilaaq from 1991 to 2010.,1,prolific/train-0-448110.png,TRUE,English,"{'question1': 'False', 'question10': 'Skip', 'question11': 'Skip', 'question12': 'False', 'question2': 'Great Britain', 'question3': '30-40 km', 'question4': 'True', 'question5': '17.6%', 'question6': 'Shanghai', 'question7': 'Skip', 'question8': '$50.54', 'question9': '40.51 Mbps'}",11.0943,81963,5,19.05823333,Tiilerilaaq,0,first,9,9,Tiilerilaaq population growth dynamics in the last two decades. Source: Statistics Greenland[4],Tiilerilaaq population dynamics,51,17,3,0.4705882353,0.6,0.5625230074,0.7478767037,0,0.6924266815,0.803,0,2,0,0
Safety of electronic cigarettes,"Safety of electronic cigarettes / Fires, explosions, and other battery-related malfunctions",eb5cb1fa4af9aad4594437a9,Data from 2009 to 2016 which shows a positive correlation between the number of injuries from e-cigarette explosions and fires and e-cigarette sales trend.,2,prolific/train-0-407025.png,TRUE,English,"{'question1': 'False', 'question10': 'Skip', 'question11': 'Skip', 'question12': 'False', 'question2': 'Great Britain', 'question3': '30-40 km', 'question4': 'True', 'question5': '17.6%', 'question6': 'Shanghai', 'question7': 'Skip', 'question8': '$50.54', 'question9': '40.51 Mbps'}",11.0943,128796,5,19.05823333,Safety of electronic cigarettes,1,first,9,25,Graphic from a July 2016 United States Fire Administration (USFA) report entitled Electronic Cigarette Fires and Explosions in the United States 2009 – 2016.[326] There has been an increase in the number of severe and moderate injuries resulting from e-cigarette explosions and fires since 2014.[326] The USFA noted that this appears to correlate well with the e-cigarette sales trend.[326],Graphic from a July 2016 United States Fire Administration (USFA) report entitled Electronic Cigarette Fires and Explosions in the United States 2009 – 2016. There has been an increase in the number of severe and moderate injuries resulting from e-cigarette explosions and fires since 2014. The USFA noted that this appears to correlate well with the e-cigarette sales trend.,155,73,64,0.625,0.6666666667,0.8047558665,0.8120869398,0,0.9825590849,0.904,0,2,0,0
Ikerasaarsuk,Ikerasaarsuk / Population,eb5cb1fa4af9aad4594437a9,This bar graph shows the population growth in Ikerasaarsuk from 1991 to 2010. There was a spike in growth in the late 1990s.,1,prolific/train-0-370954.png,TRUE,English,"{'question1': 'False', 'question10': 'Skip', 'question11': 'Skip', 'question12': 'False', 'question2': 'Great Britain', 'question3': '30-40 km', 'question4': 'True', 'question5': '17.6%', 'question6': 'Shanghai', 'question7': 'Skip', 'question8': '$50.54', 'question9': '40.51 Mbps'}",11.0943,97799,5,19.05823333,Ikerasaarsuk,2,first,9,25,Ikerasaarsuk population growth dynamics in the last two decades. Source: Statistics Greenland[4],Ikerasaarsuk population dynamics,124,17,3,0.5428571429,0.5172413793,0.6909271479,0.7053526044,0,0.7536988854,0.828,0,2,0,1
Tiilerilaaq,Tiilerilaaq / Population,56ebca742267d1ecbf0a722e,"In 1991, the population growth 209. In 1992, it was 181. In 1992, it was 179. In 1994, it was 192. In 1995, it was 176. In 1996, it was 163. In 1997, it was 153. In 1998, it was 155. In 1999, it was 155. In 2000, it was 146. In 2001, it was 152. In 2002, it was 155. In 2003, it was 151. In 2004, it was 160. In 2005, it was 148. In 2006, it was 165. In 2007, it was 138. In 2008, it was 146. In 2009, it was 132. In 2010, it was 134.",2,prolific/train-0-448110.png,TRUE,English,"{'question1': 'False', 'question10': '$0.71', 'question11': 'Skip', 'question12': 'False', 'question2': 'Great Britain', 'question3': '30-40 km', 'question4': 'True', 'question5': '17.6%', 'question6': 'Shanghai', 'question7': '$7.5', 'question8': '$50.54', 'question9': '40.51 Mbps'}",5.725366667,249531,4,19.64613333,Tiilerilaaq,0,first,10,141,Tiilerilaaq population growth dynamics in the last two decades. Source: Statistics Greenland[4],Tiilerilaaq population dynamics,434,17,3,0.4358974359,0.3529411765,0.3117572665,0.2880517542,0,0.6924266815,0.6714,0,40,0,0
Breastfeeding promotion,Breastfeeding promotion / Breastfeeding promotion projects by region / Asia / India,56ebca742267d1ecbf0a722e,"The above bar graph shows the early initiation of breastfeeding in some Asian countries. In India, the percentage is 41.5. In Pakistan, it is 18%. In Sri Lanka, the percent is 90.3. In Bangladesh, it is 50.8%. In Nepal, the percent is 54.9. In China it is 26.4%.",3,prolific/train-0-119573.png,TRUE,English,"{'question1': 'False', 'question10': '$0.71', 'question11': 'Skip', 'question12': 'False', 'question2': 'Great Britain', 'question3': '30-40 km', 'question4': 'True', 'question5': '17.6%', 'question6': 'Shanghai', 'question7': '$7.5', 'question8': '$50.54', 'question9': '40.51 Mbps'}",5.725366667,129049,4,19.64613333,Breastfeeding promotion,1,first,10,63,Early Initiation of Breastfeeding in some of the Asian countries. Source: 2018 Global Breastfeeding Scorecard,Early Initiation of Breastfeeding in some of the Asian countries. Source: 2018 Global Breastfeeding Scorecard https://www.indiaspend.com/6-in-10-indian-babies-miss-out-on-early-breastfeeding-and-its-life-saving-benefits-62614/,262,17,20,0.5957446809,0.6734693878,0.743059516,0.6960892081,0,0.9155380726,0.815,0,11,0,0
Ikerasaarsuk,Ikerasaarsuk / Population,56ebca742267d1ecbf0a722e,"The above graph shows the population growth of Ikerasaarsuk. In 1991, it was 79. In 1992, it was 77. In 1993, it was 83. In 1994, it was 91. In 1995, it was 102. In 1996, it was 101. In 1997, it was 113. In 1998, it was 117. In 1999, it was 116. In 2000, it was 121. In 2001, it was 116. In 2002, it was 110. In 2003, it was 118. In 2004, it was 123. In 2005, it was 121. In 2006, it was 124. In 2007, it was 113. In 2008 it was 109. In 2009, it was 103. In 2010, it was 106.",2,prolific/train-0-370954.png,TRUE,English,"{'question1': 'False', 'question10': '$0.71', 'question11': 'Skip', 'question12': 'False', 'question2': 'Great Britain', 'question3': '30-40 km', 'question4': 'True', 'question5': '17.6%', 'question6': 'Shanghai', 'question7': '$7.5', 'question8': '$50.54', 'question9': '40.51 Mbps'}",5.725366667,343299,4,19.64613333,Ikerasaarsuk,2,first,10,149,Ikerasaarsuk population growth dynamics in the last two decades. Source: Statistics Greenland[4],Ikerasaarsuk population dynamics,475,17,3,0.4523809524,0.3783783784,0.5212241411,0.5762720704,0,0.7536988854,0.7524,0,40,0,0
Tiilerilaaq,Tiilerilaaq / Population,78de30cbaefb92ea5eab83d7,Tiilerilaaq growth in population from 1991-2010,1,prolific/train-0-448110.png,TRUE,English,"{'question1': 'True', 'question10': '$0.71', 'question11': '1 to 3', 'question12': 'False', 'question2': 'Great Britain', 'question3': '30-40 km', 'question4': 'True', 'question5': '17.6%', 'question6': 'Shanghai', 'question7': '$5.2', 'question8': '$50.54', 'question9': '40.51 Mbps'}",4.174633333,35326,3,11.62993333,Tiilerilaaq,0,first,9,6,Tiilerilaaq population growth dynamics in the last two decades. Source: Statistics Greenland[4],Tiilerilaaq population dynamics,47,17,3,0.5,0.5185185185,0.7395293713,0.8352432847,0,0.6924266815,0.787,0,2,0,0
Ikerasaarsuk,Ikerasaarsuk / Population,78de30cbaefb92ea5eab83d7,Ikerasaarsuk population growth from 1991 - 2010 by year,1,prolific/train-0-370954.png,TRUE,English,"{'question1': 'True', 'question10': '$0.71', 'question11': '1 to 3', 'question12': 'False', 'question2': 'Great Britain', 'question3': '30-40 km', 'question4': 'True', 'question5': '17.6%', 'question6': 'Shanghai', 'question7': '$5.2', 'question8': '$50.54', 'question9': '40.51 Mbps'}",4.174633333,37924,3,11.62993333,Ikerasaarsuk,1,first,9,9,Ikerasaarsuk population growth dynamics in the last two decades. Source: Statistics Greenland[4],Ikerasaarsuk population dynamics,55,17,3,0.5428571429,0.5714285714,0.7772473097,0.8059058785,0,0.7536988854,0.79,0,2,0,0
Normally distributed and uncorrelated does not imply independent,Normally distributed and uncorrelated does not imply independent / Examples / A symmetric example,78de30cbaefb92ea5eab83d7,density fxn joint range x and y values,5,prolific/train-0-236684.png,TRUE,English,"{'question1': 'True', 'question10': '$0.71', 'question11': '1 to 3', 'question12': 'False', 'question2': 'Great Britain', 'question3': '30-40 km', 'question4': 'True', 'question5': '17.6%', 'question6': 'Shanghai', 'question7': '$5.2', 'question8': '$50.54', 'question9': '40.51 Mbps'}",4.174633333,36164,3,11.62993333,Normally distributed and uncorrelated does not imply independent,2,first,9,8,"Joint range of
  
  
  
  X
  
  
  {\displaystyle X}
  
  and
  
  
  
  Y
  
  
  {\displaystyle Y}
  
 . Darker indicates higher value of the density function.","Two normally distributed, uncorrelated but dependent variables.",38,24,9,0.5161290323,0.5384615385,0.5789266229,0.3391549587,0,0.216137737,0.7676,0,0,0,0
Tiilerilaaq,Tiilerilaaq / Population,4b0a3744731cffbc976ae1f2,This image is more of a graph of Tiilerilaaq Population.,3,prolific/train-0-448110.png,TRUE,English,"{'question1': 'False', 'question10': '$0.80', 'question11': '1 to 3', 'question12': 'True', 'question2': 'Great Britain', 'question3': '60-70 km', 'question4': 'True', 'question5': '35.2%', 'question6': 'Seoul', 'question7': '$4.5', 'question8': '$50.54', 'question9': '40.51 Mbps'}",10.24001667,185471,1,25.85623333,Tiilerilaaq,0,first,5,11,Tiilerilaaq population growth dynamics in the last two decades. Source: Statistics Greenland[4],Tiilerilaaq population dynamics,56,17,3,0.6,0.652173913,0.5008765459,0.7927287817,0,0.6924266815,0.732,0,0,0,0
Tiilerilaaq,Tiilerilaaq / Population,4b0a3744731cffbc976ae1f2,This image is more of a graph of Tiilerilaaq Population.,3,prolific/train-0-448110.png,TRUE,English,"{'question1': 'False', 'question10': '$0.80', 'question11': '1 to 3', 'question12': 'True', 'question2': 'Great Britain', 'question3': '60-70 km', 'question4': 'True', 'question5': '35.2%', 'question6': 'Seoul', 'question7': '$4.5', 'question8': '$50.54', 'question9': '40.51 Mbps'}",10.24001667,45359,1,25.85623333,Tiilerilaaq,0,second,5,11,Tiilerilaaq population growth dynamics in the last two decades. Source: Statistics Greenland[4],Tiilerilaaq population dynamics,56,17,3,0.6,0.652173913,0.5008765459,0.7927287817,0,0.6924266815,0.732,0,0,0,0
Ernie Toshack with the Australian cricket team in England in 1948,Ernie Toshack with the Australian cricket team in England in 1948 / Role,4b0a3744731cffbc976ae1f2,Ernie Toshack's First class batting performance highs and lows.,3,prolific/train-0-24640.png,TRUE,English,"{'question1': 'False', 'question10': '$0.80', 'question11': '1 to 3', 'question12': 'True', 'question2': 'Great Britain', 'question3': '60-70 km', 'question4': 'True', 'question5': '35.2%', 'question6': 'Seoul', 'question7': '$4.5', 'question8': '$50.54', 'question9': '40.51 Mbps'}",10.24001667,216821,1,25.85623333,Ernie Toshack with the Australian cricket team in England in 1948,1,first,5,11,"A chart showing Toshack's batting performance during the tour. The runs scored per innings are represented by the bars, with the red bars being Test innings and the pink bars being other first-class innings. The blue line is the average of the five most recent innings and the dots indicate not outs.[10]","Toshack started the season with five first-class innings outside the Tests, and all were less than 10 and four were less than five, none were not out. He then scored two scores between 15 and 20 in the Tests, with a score of four outside the Tests in between. After scores of 1 and zero not out in the next two tour matches, he scored 12 not out in his third and final Test innings. He then finished with two in a tour match. All of his efforts beyond ten were in Tests, and he passed ten in all three Test innings, two of these being not out.",63,60,119,0.6571428571,0.5789473684,0.5829648972,0.531894803,0,0.585480094,0.831,0,0,0,0
Ikerasaarsuk,Ikerasaarsuk / Population,4b0a3744731cffbc976ae1f2,Ikerasaarsuk/Population growth dynamics from 1991 thru 2010.,3,prolific/train-0-370954.png,TRUE,English,"{'question1': 'False', 'question10': '$0.80', 'question11': '1 to 3', 'question12': 'True', 'question2': 'Great Britain', 'question3': '60-70 km', 'question4': 'True', 'question5': '35.2%', 'question6': 'Seoul', 'question7': '$4.5', 'question8': '$50.54', 'question9': '40.51 Mbps'}",10.24001667,123038,1,25.85623333,Ikerasaarsuk,2,first,5,8,Ikerasaarsuk population growth dynamics in the last two decades. Source: Statistics Greenland[4],Ikerasaarsuk population dynamics,60,17,3,0.6285714286,0.6206896552,0.7695795298,0.8244591355,0,0.7536988854,0.7104,0,2,0,0
Federal political financing in Canada,Federal political financing in Canada / Private funding / Cost of fundraising,344839fbe2517adc2d15f38d,"The image is a chunky bar graph which compares the fundraising expenses with the contributions raised. It shows 4 comparisons , Canada's Canservative party, the Liberal Party andthe New Democratic Party. It also shows the whole thing tallied up , inother words all three parties fundraising expenses as compared with all of the funds they raised.",4,prolific/train-0-14152.png,TRUE,English,"{'question1': 'False', 'question10': '$0.71', 'question11': 'Skip', 'question12': 'True', 'question2': 'Great Britain', 'question3': '30-40 km', 'question4': 'True', 'question5': '17.6%', 'question6': 'Shanghai', 'question7': 'Skip', 'question8': '$50.54', 'question9': '40.51 Mbps'}",14.61318333,449062,4,67.1506,Federal political financing in Canada,0,first,9,61,Party-level fundraising costs vs. party-level contributions raised at top three Canadian federal parties in 2009 (source: Elections Canada[4]),Party-level fundraising costs vs. party-level contributions raised at top three Canadian federal parties in 2009,347,24,15,0.5333333333,0.5897435897,0.6106712818,0.586001277,0,0.9816362858,0.7773,0,1,0,1
Ikerasaarsuk,Ikerasaarsuk / Population,344839fbe2517adc2d15f38d,The Image is a bar graph with year by year across the bottom; 1991 through 2010. The bar for each year represents the population of Ikerasaarsuk of last two decades. The chart shows 1991 to have a value of 79. Values basically rose dramatically in the early 1990s and tapered off after 2007. The highest value was 126 in the year 2006.,4,prolific/train-0-370954.png,TRUE,English,"{'question1': 'False', 'question10': '$0.71', 'question11': 'Skip', 'question12': 'True', 'question2': 'Great Britain', 'question3': '30-40 km', 'question4': 'True', 'question5': '17.6%', 'question6': 'Shanghai', 'question7': 'Skip', 'question8': '$50.54', 'question9': '40.51 Mbps'}",14.61318333,1039637,4,67.1506,Ikerasaarsuk,1,first,9,68,Ikerasaarsuk population growth dynamics in the last two decades. Source: Statistics Greenland[4],Ikerasaarsuk population dynamics,337,17,3,0.55,0.5294117647,0.4250338674,0.4741256535,0,0.7536988854,0.8213,0,7,0,2
Ikerasaarsuk,Ikerasaarsuk / Population,344839fbe2517adc2d15f38d,The Image is a bar graph with year by year across the bottom; 1991 through 2010. The bar for each year represents the population of Ikerasaarsuk. The chart shows 1991 to have a value of 79. Values basically rose dramatically in the early 1990s and tapered off after 2007. The highest value was 126 in the year 2006.,4,prolific/train-0-370954.png,TRUE,English,"{'question1': 'False', 'question10': '$0.71', 'question11': 'Skip', 'question12': 'True', 'question2': 'Great Britain', 'question3': '30-40 km', 'question4': 'True', 'question5': '17.6%', 'question6': 'Shanghai', 'question7': 'Skip', 'question8': '$50.54', 'question9': '40.51 Mbps'}",14.61318333,61716,4,67.1506,Ikerasaarsuk,1,second,9,64,Ikerasaarsuk population growth dynamics in the last two decades. Source: Statistics Greenland[4],Ikerasaarsuk population dynamics,316,17,3,0.55,0.5294117647,0.4092370868,0.4593176246,0,0.7536988854,0.8203,0,7,0,2
Tiilerilaaq,Tiilerilaaq / Population,344839fbe2517adc2d15f38d,"This image is a bar graph labeled Tiilerilaaq population growth dynamics in the last two decades. The bottom of the chart is year by year 1991 through 2010, and title is a but of a misnomer , because the population definitelu dwindled. 1991 was 209 and 2010 was 134.",4,prolific/train-0-448110.png,TRUE,English,"{'question1': 'False', 'question10': '$0.71', 'question11': 'Skip', 'question12': 'True', 'question2': 'Great Britain', 'question3': '30-40 km', 'question4': 'True', 'question5': '17.6%', 'question6': 'Shanghai', 'question7': 'Skip', 'question8': '$50.54', 'question9': '40.51 Mbps'}",14.61318333,254733,4,67.1506,Tiilerilaaq,2,first,9,53,Tiilerilaaq population growth dynamics in the last two decades. Source: Statistics Greenland[4],Tiilerilaaq population dynamics,268,17,3,0.6388888889,0.5806451613,0.5902203321,0.6736593843,0,0.6924266815,0.7593,0,6,0,1
Tiilerilaaq,Tiilerilaaq / Population,344839fbe2517adc2d15f38d,"This image is a bar graph labeled Tiilerilaaq population growth dynamics in the last two decades. The bottom of the chart is year by year; 1991 through 2010, and title is a bit of a misnomer , because the population definitelu dwindled. 1991 was 209 and 2010 was 134.",4,prolific/train-0-448110.png,TRUE,English,"{'question1': 'False', 'question10': '$0.71', 'question11': 'Skip', 'question12': 'True', 'question2': 'Great Britain', 'question3': '30-40 km', 'question4': 'True', 'question5': '17.6%', 'question6': 'Shanghai', 'question7': 'Skip', 'question8': '$50.54', 'question9': '40.51 Mbps'}",14.61318333,25649,4,67.1506,Tiilerilaaq,2,second,9,54,Tiilerilaaq population growth dynamics in the last two decades. Source: Statistics Greenland[4],Tiilerilaaq population dynamics,269,17,3,0.6216216216,0.5625,0.5877505541,0.678601861,0,0.6924266815,0.752,0,6,0,1
Tiilerilaaq,Tiilerilaaq / Population,b31384990e5c8b92e394636d,Decreasing values from 20 to 134 from 1991 to 2010,1,prolific/train-0-448110.png,TRUE,english,"{'question1': 'False', 'question10': 'Skip', 'question11': 'Skip', 'question12': 'Skip', 'question2': 'Great Britain', 'question3': '30-40 km', 'question4': 'True', 'question5': '17.6%', 'question6': 'Shanghai', 'question7': '$4.5', 'question8': 'Skip', 'question9': 'Skip'}",4.506616667,39720,5,28.8937,Tiilerilaaq,0,first,6,10,Tiilerilaaq population growth dynamics in the last two decades. Source: Statistics Greenland[4],Tiilerilaaq population dynamics,50,17,3,0.4166666667,0.4642857143,0.2086255252,0.1988545358,0,0.6924266815,0.7246,0,4,0,0
Green marketing,Green marketing / Adoptability / LOHAS,b31384990e5c8b92e394636d,Conventionals are highest at 26 and Lohas lowest at 17. Others are 19,3,prolific/train-0-480642.png,TRUE,english,"{'question1': 'False', 'question10': 'Skip', 'question11': 'Skip', 'question12': 'Skip', 'question2': 'Great Britain', 'question3': '30-40 km', 'question4': 'True', 'question5': '17.6%', 'question6': 'Shanghai', 'question7': '$4.5', 'question8': 'Skip', 'question9': 'Skip'}",4.506616667,266444,5,28.8937,Green marketing,1,first,6,14,The distribution of the different types of LOHAS.[26],The distribution of the different types of LOHAS.,69,12,9,0.4285714286,0.3939393939,0.48012501,0.412076354,0,0.9695470929,0.574,0,3,0,2
Ikerasaarsuk,Ikerasaarsuk / Population,b31384990e5c8b92e394636d,Increased drastically from 91 to 97 then stable until 2010,2,prolific/train-0-370954.png,TRUE,english,"{'question1': 'False', 'question10': 'Skip', 'question11': 'Skip', 'question12': 'Skip', 'question2': 'Great Britain', 'question3': '30-40 km', 'question4': 'True', 'question5': '17.6%', 'question6': 'Shanghai', 'question7': '$4.5', 'question8': 'Skip', 'question9': 'Skip'}",4.506616667,237510,5,28.8937,Ikerasaarsuk,2,first,6,10,Ikerasaarsuk population growth dynamics in the last two decades. Source: Statistics Greenland[4],Ikerasaarsuk population dynamics,58,17,3,0.4857142857,0.6153846154,0.227196902,0.1442780495,0,0.7536988854,0.7334,0,3,0,0
Elections in Croatia,Elections in Croatia / Parliamentary elections / Previous parliamentary elections,ac3f1c7649d076c01c13e21d,The image above shows the Croatian parliamentary results of any party winning 10 or more seats in any election during that time frame.,2,prolific/train-0-472392.png,TRUE,"English, Telegu","{'question1': 'False', 'question10': '$0.71', 'question11': '1 to 2', 'question12': 'False', 'question2': 'Great Britain', 'question3': '30-40 km', 'question4': 'True', 'question5': '17.6%', 'question6': 'Shanghai', 'question7': '$7.5', 'question8': '$50.54', 'question9': '40.51 Mbps'}",3.522466667,70087,3,7.7845,Elections in Croatia,0,first,11,24,"Croatian parliamentary election results, 1992–2016; parties winning 10 or more seats in any one election shown individually","Graph of Croatian election results, using differently-colored lines",134,19,9,0.696969697,0.6333333333,0.8646309376,0.5944543481,0,0.612041831,0.7188,0,1,0,0
Single crossing condition,Single crossing condition,ac3f1c7649d076c01c13e21d,It shows the values of 2 cumulative distribution functions F(x) and G(x).,1,prolific/train-0-307125.png,FALSE,"English, Telegu","{'question1': 'False', 'question10': '$0.71', 'question11': '1 to 2', 'question12': 'False', 'question2': 'Great Britain', 'question3': '30-40 km', 'question4': 'True', 'question5': '17.6%', 'question6': 'Shanghai', 'question7': '$7.5', 'question8': '$50.54', 'question9': '40.51 Mbps'}",3.522466667,42915,3,7.7845,Single crossing condition,2,first,11,19,Example of two cumulative distribution functions F(x) and G(x) which satisfy the single-crossing condition.,Example of two normal cumulative distribution functions F(x) and G(x) which satisfy the single-crossing condition.,73,21,22,0.78125,0.78125,0.7740653753,0.7576541901,0,0.9686145782,0.7734,0,1,0,0
Near-infrared window in biological tissue,Near-infrared window in biological tissue / Absorption properties of tissue components / Water,1a1b079a293cd4b46a7036af,"The line graph, displaying one blue line and one red line, show molecular coefficients of eumelanin and pheomelanin. The x axis starts at 200 and goes up every 100 to 900; the y axis starts at 10 to the power of one until it gets to 10 to the power of 5. The blue line represents eumelanin and red represents Pheomelanin; the blue line starts 4 ticks below 10 to the power of 5 and ends five ticks just past 800 and the red line starts just above 10 to the power of 4 and ends six ticks past 800.",5,prolific/train-0-201657.png,TRUE,English,"{'question1': 'False', 'question10': '$0.71', 'question11': '1 to 1', 'question12': 'Skip', 'question2': 'Great Britain', 'question3': '30-40 km', 'question4': 'True', 'question5': '17.6%', 'question6': 'Seoul', 'question7': '$5.2', 'question8': '$50.54', 'question9': '42.30 Mbps'}",6.606316667,298527,3,21.11838333,Near-infrared window in biological tissue,1,first,7,107,Figure 3: The molar extinction coefficients of eumelanin and pheomelanin.[5],Figure 3: Figure 3: The molar extinction coefficients of eumelanin and pheomelanin.,496,15,15,0.5238095238,0.525,0.347907573,0.3409882188,0,0.9899117351,0.673,6,13,0,1
InflateSail,InflateSail / Altitude loss,4f6ea8cba0efe432043bb55e,"The image is a dot line graph. On the Y axis are numbers from 380 to 490 in intervals of 10. The X axis is listed as Aug 2017. There is a steady decline from top left to bottom right, beginning at 475 and ending at 390 at the bottom right corner.",3,prolific/train-0-183840.jpg,TRUE,English,"{'question1': 'False', 'question10': '$0.71', 'question11': '1 to 2', 'question12': 'False', 'question2': 'Great Britain', 'question3': '30-40 km', 'question4': 'True', 'question5': '17.6%', 'question6': 'Shanghai', 'question7': '$4.5', 'question8': '$50.54', 'question9': '40.51 Mbps'}",2.884733333,99643,3,11.70016667,InflateSail,0,first,11,57,Change in average orbit height during August 2017[11],Change in average orbit height during August 2017,246,11,8,0.487804878,0.5128205128,0.1596714109,0.165078178,0,0.9874690771,0.676,0,6,0,4
Nanortalik,Nanortalik / Population,4f6ea8cba0efe432043bb55e,"The image is a series of columns or bars that show the population growth dynamics by year, from 1991-2010. The data show the following:
 1991 - 1.441
 1992 - 1.483
 1993 - 1.499
 1994 - 1.508
 1995 - 1.564
 1996 - 1.527
 1997 - 1.541
 1998 - 1.506
 1999 - 1.516
 2000 - 1.538
 2001 - 1.506
 2002 - 1.544
 2003 - 1.549
 2004 - 1.529
 2005 - 1.509
 2006 - 1.476
 2007 - 1.450
 2008 - 1.445
 2009 - 1.430
 2010 - 1.448",4,prolific/train-0-283458.png,TRUE,English,"{'question1': 'False', 'question10': '$0.71', 'question11': '1 to 2', 'question12': 'False', 'question2': 'Great Britain', 'question3': '30-40 km', 'question4': 'True', 'question5': '17.6%', 'question6': 'Shanghai', 'question7': '$4.5', 'question8': '$50.54', 'question9': '40.51 Mbps'}",2.884733333,161150,3,11.70016667,Nanortalik,1,first,11,87,"Nanortalik population growth dynamics, 1991-2010. Source: Statistics Greenland[12]",Nanortalik population dynamics,395,14,3,0.6279069767,0.3846153846,0.4360106587,0.2808498144,0,0.6886775494,0.7686,0,62,0,0
Tetration,Tetration / Inverse operations / Super-root / Other super-roots,9218c09b6a29ad16827e32cb,This image depicts a graph showcasing the following formula: y = x 3 s,4,prolific/train-0-28614.png,TRUE,English,"{'question1': 'False', 'question10': '$0.71', 'question11': '1 to 3', 'question12': 'False', 'question2': 'Great Britain', 'question3': '30-40 km', 'question4': 'True', 'question5': '17.6%', 'question6': 'Shanghai', 'question7': '$4.5', 'question8': '$50.54', 'question9': '40.51 Mbps'}",8.617766667,62439,3,19.96598333,Tetration,0,first,10,15,"The graph
  
  
  
  y
  =
  
  
  
  x
  
  3
  
  
  
  
  s
  
  
  
  
  {\displaystyle y={\sqrt[{3}]{x}}_{s}}
  
 .",A line graph that starts at the origin and quickly makes an asymptote toward 2 as the value along the x-axis increases,72,27,22,0.5,0.6451612903,0.6523732543,0.5484169722,0,0.4837883711,0.8027,0,1,0,0
Nanortalik,Nanortalik / Population,9218c09b6a29ad16827e32cb,"This image depicts a graph showing the Nanortalik population growth dynamics from 1991-2010. The growth dynamics have a small variance year by year. The lowest number on the chart is 1,430 townspeople in 2009, and the highest number is 1,564 townspeople in 1995.",4,prolific/train-0-283458.png,TRUE,English,"{'question1': 'False', 'question10': '$0.71', 'question11': '1 to 3', 'question12': 'False', 'question2': 'Great Britain', 'question3': '30-40 km', 'question4': 'True', 'question5': '17.6%', 'question6': 'Shanghai', 'question7': '$4.5', 'question8': '$50.54', 'question9': '40.51 Mbps'}",8.617766667,360297,3,19.96598333,Nanortalik,1,first,10,47,"Nanortalik population growth dynamics, 1991-2010. Source: Statistics Greenland[12]",Nanortalik population dynamics,262,14,3,0.6829268293,0.4722222222,0.6757631302,0.6859878302,0,0.6886775494,0.759,0,8,0,2
Single crossing condition,Single crossing condition,da93d39c2bee0623469f1a18,"The image above depicts two curved functions--one is lined in blue, and one is lined in red--that intersect each other in the middle. Both run diagonally from left to right in a single curved path, though the red line's curve is skinnier than the blue line's curve.",5,prolific/train-0-307125.png,TRUE,Vietnamese,"{'question1': 'False', 'question10': '$0.71', 'question11': '1 to 3', 'question12': 'False', 'question2': 'Great Britain', 'question3': '30-40 km', 'question4': 'True', 'question5': '10.9%', 'question6': 'Shanghai', 'question7': '$4.5', 'question8': '$50.54', 'question9': '40.51 Mbps'}",5.184083333,177542,2,13.6345,Single crossing condition,0,first,9,57,Example of two cumulative distribution functions F(x) and G(x) which satisfy the single-crossing condition.,Example of two normal cumulative distribution functions F(x) and G(x) which satisfy the single-crossing condition.,265,21,22,0.6857142857,0.6857142857,0.3845901787,0.3699401021,0,0.9686145782,0.741,2,0,0,0
Rotaviral gastroenteritis,Rotaviral gastroenteritis / Epidemiology,da93d39c2bee0623469f1a18,"The above graph depicts the seasonal variation of reports of rotavirus A infections. The graph shows months of July, November, and March spanning the years 2000 to 2012. What we see from this graph is that infections spike around November to March while there are almost none during July.",3,prolific/train-0-205301.png,TRUE,Vietnamese,"{'question1': 'False', 'question10': '$0.71', 'question11': '1 to 3', 'question12': 'False', 'question2': 'Great Britain', 'question3': '30-40 km', 'question4': 'True', 'question5': '10.9%', 'question6': 'Shanghai', 'question7': '$4.5', 'question8': '$50.54', 'question9': '40.51 Mbps'}",5.184083333,135939,2,13.6345,Rotaviral gastroenteritis,1,first,9,54,The seasonal variation of rotavirus A infections in a region of England: rates of infection peak during the winter months.,A line graph with the months and years on the x-axis and the number of infections on the y-axis. The peaks in the line correspond to the winter months of the northern hemisphere.,288,22,35,0.6666666667,0.6944444444,0.745803237,0.5114018321,0,0.4159944057,0.911,0,2,2,1
Near-infrared window in biological tissue,Near-infrared window in biological tissue / Absorption properties of tissue components / Water,da93d39c2bee0623469f1a18,"The graph above depicts two lines that portray the molar extinction coefficients of eumelanin and pheomelanin. One line is red and one line is blue, and they both exhibit a negative linear trend. However, the red line's negative slope is steeper than that of the blue. The blue line resembles a nearly completely straight line, while the red line experiences a few noticeable dips and a significant spike near the tip of the right side of the line.",4,prolific/train-0-201657.png,TRUE,Vietnamese,"{'question1': 'False', 'question10': '$0.71', 'question11': '1 to 3', 'question12': 'False', 'question2': 'Great Britain', 'question3': '30-40 km', 'question4': 'True', 'question5': '10.9%', 'question6': 'Shanghai', 'question7': '$4.5', 'question8': '$50.54', 'question9': '40.51 Mbps'}",5.184083333,108652,2,13.6345,Near-infrared window in biological tissue,2,first,9,86,Figure 3: The molar extinction coefficients of eumelanin and pheomelanin.[5],Figure 3: Figure 3: The molar extinction coefficients of eumelanin and pheomelanin.,448,15,15,0.5833333333,0.6363636364,0.5823882222,0.5764980316,0,0.9899117351,0.7764,4,0,2,2
Near-infrared window in biological tissue,Near-infrared window in biological tissue / Absorption properties of tissue components / Water,c71e905ca3bd4f2c8d05769c,"The picture is of a line graph measuring ""wavelength"" and ""Molecular Extinction Coefficient"". The properties being tested are ""Eumelanin"" and ""Pheomelanin"". Both properties show to decrease in wavelength when the Molecular Extinction Coefficient is higher, however Pheomelanin decreases more compared to Eumelanin.",5,prolific/train-0-201657.png,TRUE,English,"{'question1': 'False', 'question10': '$0.71', 'question11': 'Skip', 'question12': 'False', 'question2': 'Great Britain', 'question3': '30-40 km', 'question4': 'True', 'question5': '10.9%', 'question6': 'Shanghai', 'question7': '$4.5', 'question8': '$50.54', 'question9': '40.51 Mbps'}",8.955283333,475063,1,23.2719,Near-infrared window in biological tissue,0,first,9,54,Figure 3: The molar extinction coefficients of eumelanin and pheomelanin.[5],Figure 3: Figure 3: The molar extinction coefficients of eumelanin and pheomelanin.,315,15,15,0.5675675676,0.6176470588,0.5711423159,0.5625439286,0,0.9899117351,0.701,0,0,0,2
InflateSail,InflateSail / Altitude loss,c71e905ca3bd4f2c8d05769c,"The graph shows the Orbit Height starting at 475 km and decreasing rapidliy throughout August, ending at 385 Km",4,prolific/train-0-183840.jpg,TRUE,English,"{'question1': 'False', 'question10': '$0.71', 'question11': 'Skip', 'question12': 'False', 'question2': 'Great Britain', 'question3': '30-40 km', 'question4': 'True', 'question5': '10.9%', 'question6': 'Shanghai', 'question7': '$4.5', 'question8': '$50.54', 'question9': '40.51 Mbps'}",8.955283333,145723,1,23.2719,InflateSail,1,first,9,20,Change in average orbit height during August 2017[11],Change in average orbit height during August 2017,111,11,8,0.4102564103,0.4324324324,0.6574491262,0.6742757559,0,0.9874690771,0.7524,0,2,0,1
Single crossing condition,Single crossing condition,c71e905ca3bd4f2c8d05769c,Line graph demonstrating single crossing at the 0.5 point and 0 Point. Halfway through the graph.,5,prolific/train-0-307125.png,TRUE,English,"{'question1': 'False', 'question10': '$0.71', 'question11': 'Skip', 'question12': 'False', 'question2': 'Great Britain', 'question3': '30-40 km', 'question4': 'True', 'question5': '10.9%', 'question6': 'Shanghai', 'question7': '$4.5', 'question8': '$50.54', 'question9': '40.51 Mbps'}",8.955283333,98950,1,23.2719,Single crossing condition,2,first,9,18,Example of two cumulative distribution functions F(x) and G(x) which satisfy the single-crossing condition.,Example of two normal cumulative distribution functions F(x) and G(x) which satisfy the single-crossing condition.,98,21,22,0.6,0.6,0.4161028266,0.4014381766,0,0.9686145782,0.711,0,3,0,0
Rotaviral gastroenteritis,Rotaviral gastroenteritis / Epidemiology,8340526e21cbf92245845730,"The data visualization shows an erratic trend of variation, as it goes up and down repeatedly. For example, it appears that from the period from Nov. to Jul., it peaks, while the rates of infection lower starting in July to November. The data is from July 2000 to March. 2012. The highest number of reports is 6000 in the years 2010 to 2011.",5,prolific/train-0-205301.png,TRUE,English,"{'question1': 'False', 'question10': '$0.71', 'question11': '1 to 2', 'question12': 'False', 'question2': 'Great Britain', 'question3': '30-40 km', 'question4': 'True', 'question5': '17.6%', 'question6': 'Shanghai', 'question7': '$5.2', 'question8': '$50.54', 'question9': '40.51 Mbps'}",4.8924,411186,5,19.22583333,Rotaviral gastroenteritis,0,first,11,72,The seasonal variation of rotavirus A infections in a region of England: rates of infection peak during the winter months.,A line graph with the months and years on the x-axis and the number of infections on the y-axis. The peaks in the line correspond to the winter months of the northern hemisphere.,341,22,35,0.5897435897,0.6578947368,0.3954520226,0.5271252394,0,0.4159944057,0.8716,0,5,0,4
InflateSail,InflateSail / Altitude loss,8340526e21cbf92245845730,"This visualization shows an average height using km. It starts between 470 to 480. There is a downward trend all the way down to under 390. The change in average orbit overall is that it decreases over time, slowing down around 460.",2,prolific/train-0-183840.jpg,TRUE,English,"{'question1': 'False', 'question10': '$0.71', 'question11': '1 to 2', 'question12': 'False', 'question2': 'Great Britain', 'question3': '30-40 km', 'question4': 'True', 'question5': '17.6%', 'question6': 'Shanghai', 'question7': '$5.2', 'question8': '$50.54', 'question9': '40.51 Mbps'}",4.8924,105680,5,19.22583333,InflateSail,1,first,11,47,Change in average orbit height during August 2017[11],Change in average orbit height during August 2017,232,11,8,0.4358974359,0.4594594595,0.6063177586,0.612238884,0,0.9874690771,0.7373,0,4,2,4
Single crossing condition,Single crossing condition,8340526e21cbf92245845730,"In this data visualization, the F(x) and G(x) only cross between .4 and .6. The lines do not cross at any other point.",3,prolific/train-0-307125.png,TRUE,English,"{'question1': 'False', 'question10': '$0.71', 'question11': '1 to 2', 'question12': 'False', 'question2': 'Great Britain', 'question3': '30-40 km', 'question4': 'True', 'question5': '17.6%', 'question6': 'Shanghai', 'question7': '$5.2', 'question8': '$50.54', 'question9': '40.51 Mbps'}",4.8924,149236,5,19.22583333,Single crossing condition,2,first,11,32,Example of two cumulative distribution functions F(x) and G(x) which satisfy the single-crossing condition.,Example of two normal cumulative distribution functions F(x) and G(x) which satisfy the single-crossing condition.,119,21,22,0.6944444444,0.6944444444,0.338993907,0.3376010656,0,0.9686145782,0.715,0,2,0,0
Nanortalik,Nanortalik / Population,edfff12fecd3c886eab4d4bb,This shows population increase and decrease between the years of 1991 and 2010,2,prolific/train-0-283458.png,TRUE,english,"{'question1': 'False', 'question10': '$0.80', 'question11': '1 to 2', 'question12': 'Skip', 'question2': 'Great Britain', 'question3': '30-40 km', 'question4': 'True', 'question5': '35.2%', 'question6': 'Shanghai', 'question7': '$4.5', 'question8': '$50.54', 'question9': '40.51 Mbps'}",13.86265,80412,2,24.7091,Nanortalik,0,first,8,13,"Nanortalik population growth dynamics, 1991-2010. Source: Statistics Greenland[12]",Nanortalik population dynamics,78,14,3,0.5833333333,0.5185185185,0.4562229514,0.2246644199,0,0.6886775494,0.8013,0,2,0,2
Tetration,Tetration / Inverse operations / Super-root / Other super-roots,edfff12fecd3c886eab4d4bb,The graph shows certain numbers. Solve for y,5,prolific/train-0-28614.png,FALSE,english,"{'question1': 'False', 'question10': '$0.80', 'question11': '1 to 2', 'question12': 'Skip', 'question2': 'Great Britain', 'question3': '30-40 km', 'question4': 'True', 'question5': '35.2%', 'question6': 'Shanghai', 'question7': '$4.5', 'question8': '$50.54', 'question9': '40.51 Mbps'}",13.86265,63025,2,24.7091,Tetration,1,first,8,9,"The graph
  
  
  
  y
  =
  
  
  
  x
  
  3
  
  
  
  
  s
  
  
  
  
  {\displaystyle y={\sqrt[{3}]{x}}_{s}}
  
 .",A line graph that starts at the origin and quickly makes an asymptote toward 2 as the value along the x-axis increases,44,27,22,0.3888888889,0.6129032258,0.6074990034,0.5965230465,0,0.4837883711,0.745,0,0,0,0
